File: data/14_05/.ipynb_checkpoints/File_250514_183332-checkpoint.txt
'File_250514_183332 - Storage 183332'
'Wavelength nm.' 'Abs.'
350.00 0.257033
350.50 0.256803
351.00 0.256342
351.50 0.256029
352.00 0.255566
352.50 0.255335
353.00 0.254798
353.50 0.254485
354.00 0.253999
354.50 0.253720
355.00 0.253240
355.50 0.252874
356.00 0.252435
356.50 0.252017
357.00 0.251617
357.50 0.251070
358.00 0.250711
358.50 0.250235
359.00 0.249902
359.50 0.249553
360.00 0.249123
360.50 0.248600
361.00 0.248132
361.50 0.247762
362.00 0.247408
362.50 0.247051
363.00 0.246771
363.50 0.246423
364.00 0.245930
364.50 0.245444
365.00 0.245161
365.50 0.244908
366.00 0.244622
366.50 0.244175
367.00 0.243891
367.50 0.243540
368.00 0.243161
368.50 0.242726
369.00 0.242288
369.50 0.241928
370.00 0.241618
370.50 0.241303
371.00 0.240967
371.50 0.240671
372.00 0.240389
372.50 0.240155
373.00 0.239640
373.50 0.239172
374.00 0.238628
374.50 0.238295
375.00 0.237953
375.50 0.237750
376.00 0.237569
376.50 0.237438
377.00 0.237179
377.50 0.236939
378.00 0.236611
378.50 0.236284
379.00 0.235946
379.50 0.235541
380.00 0.235297
380.50 0.234990
381.00 0.234773
381.50 0.234384
382.00 0.234027
382.50 0.233670
383.00 0.233533
383.50 0.233332
384.00 0.233178
384.50 0.232838
385.00 0.232521
385.50 0.232130
386.00 0.231859
386.50 0.231541
387.00 0.231304
387.50 0.231005
388.00 0.230797
388.50 0.230579
389.00 0.230391
389.50 0.230089
390.00 0.229865
390.50 0.229521
391.00 0.229266
391.50 0.228952
392.00 0.228679
392.50 0.228415
393.00 0.228101
393.50 0.227783
394.00 0.227574
394.50 0.227347
395.00 0.227153
395.50 0.226909
396.00 0.226669
396.50 0.226448
397.00 0.226116
397.50 0.225842
398.00 0.225643
398.50 0.225418
399.00 0.225225
399.50 0.224958
400.00 0.224846
400.50 0.224682
401.00 0.224524
401.50 0.224232
402.00 0.224036
402.50 0.223756
403.00 0.223603
403.50 0.223260
404.00 0.222961
404.50 0.222619
405.00 0.222432
405.50 0.222292
406.00 0.222152
406.50 0.221929
407.00 0.221717
407.50 0.221497
408.00 0.221335
408.50 0.221154
409.00 0.220989
409.50 0.220772
410.00 0.220578
410.50 0.220380
411.00 0.220211
411.50 0.220085
412.00 0.219884
412.50 0.219729
413.00 0.219525
413.50 0.219477
414.00 0.219335
414.50 0.219158
415.00 0.218870
415.50 0.218759
416.00 0.218636
416.50 0.218524
417.00 0.218354
417.50 0.218142
418.00 0.218009
418.50 0.217877
419.00 0.217818
419.50 0.217688
420.00 0.217542
420.50 0.217450
421.00 0.217296
421.50 0.217176
422.00 0.216948
422.50 0.216801
423.00 0.216612
423.50 0.216514
424.00 0.216475
424.50 0.216379
425.00 0.216259
425.50 0.216150
426.00 0.216061
426.50 0.215934
427.00 0.215820
427.50 0.215684
428.00 0.215556
428.50 0.215456
429.00 0.215353
429.50 0.215332
430.00 0.215206
430.50 0.215088
431.00 0.214985
431.50 0.214988
432.00 0.214925
432.50 0.214825
433.00 0.214710
433.50 0.214717
434.00 0.214695
434.50 0.214602
435.00 0.214544
435.50 0.214504
436.00 0.214375
436.50 0.214308
437.00 0.214233
437.50 0.214196
438.00 0.214082
438.50 0.214035
439.00 0.214010
439.50 0.214017
440.00 0.213996
440.50 0.214013
441.00 0.213953
441.50 0.213824
442.00 0.213829
442.50 0.213823
443.00 0.213829
443.50 0.213729
444.00 0.213627
444.50 0.213657
445.00 0.213613
445.50 0.213751
446.00 0.213696
446.50 0.213820
447.00 0.213695
447.50 0.213842
448.00 0.213791
448.50 0.213855
449.00 0.213743
449.50 0.213687
450.00 0.213646
450.50 0.213664
451.00 0.213709
451.50 0.213806
452.00 0.213853
452.50 0.213877
453.00 0.213914
453.50 0.213903
454.00 0.213853
454.50 0.213841
455.00 0.213869
455.50 0.213972
456.00 0.213999
456.50 0.214057
457.00 0.214109
457.50 0.214203
458.00 0.214199
458.50 0.214318
459.00 0.214283
459.50 0.214275
460.00 0.214159
460.50 0.214266
461.00 0.214355
461.50 0.214560
462.00 0.214524
462.50 0.214570
463.00 0.214535
463.50 0.214604
464.00 0.214728
464.50 0.214802
465.00 0.214904
465.50 0.214921
466.00 0.214956
466.50 0.214911
467.00 0.214926
467.50 0.214904
468.00 0.214890
468.50 0.214935
469.00 0.214926
469.50 0.215009
470.00 0.215004
470.50 0.215035
471.00 0.215014
471.50 0.214996
472.00 0.215001
472.50 0.214983
473.00 0.215005
473.50 0.215060
474.00 0.215107
474.50 0.215141
475.00 0.215153
475.50 0.215196
476.00 0.215211
476.50 0.215252
477.00 0.215292
477.50 0.215342
478.00 0.215335
478.50 0.215371
479.00 0.215399
479.50 0.215487
480.00 0.215539
480.50 0.215606
481.00 0.215642
481.50 0.215693
482.00 0.215758
482.50 0.215794
483.00 0.215806
483.50 0.215812
484.00 0.215864
484.50 0.215908
485.00 0.215910
485.50 0.215830
486.00 0.215831
486.50 0.215825
487.00 0.215835
487.50 0.215789
488.00 0.215818
488.50 0.215793
489.00 0.215834
489.50 0.215762
490.00 0.215721
490.50 0.215648
491.00 0.215567
491.50 0.215596
492.00 0.215657
492.50 0.215743
493.00 0.215729
493.50 0.215680
494.00 0.215654
494.50 0.215631
495.00 0.215538
495.50 0.215437
496.00 0.215474
496.50 0.215481
497.00 0.215588
497.50 0.215550
498.00 0.215535
498.50 0.215443
499.00 0.215403
499.50 0.215361
500.00 0.215267
500.50 0.215268
501.00 0.215279
501.50 0.215323
502.00 0.215214
502.50 0.215187
503.00 0.215143
503.50 0.215090
504.00 0.215050
504.50 0.215018
505.00 0.215023
505.50 0.215052
506.00 0.214965
506.50 0.214980
507.00 0.214855
507.50 0.214821
508.00 0.214790
508.50 0.214755
509.00 0.214792
509.50 0.214730
510.00 0.214690
510.50 0.214639
511.00 0.214542
511.50 0.214529
512.00 0.214399
512.50 0.214398
513.00 0.214214
513.50 0.214181
514.00 0.214086
514.50 0.214135
515.00 0.214132
515.50 0.214006
516.00 0.213900
516.50 0.213758
517.00 0.213784
517.50 0.213726
518.00 0.213658
518.50 0.213477
519.00 0.213393
519.50 0.213375
520.00 0.213298
520.50 0.213202
521.00 0.213042
521.50 0.212960
522.00 0.212862
522.50 0.212755
523.00 0.212676
523.50 0.212628
524.00 0.212591
524.50 0.212568
525.00 0.212396
525.50 0.212185
526.00 0.212003
526.50 0.211907
527.00 0.211855
527.50 0.211760
528.00 0.211623
528.50 0.211557
529.00 0.211513
529.50 0.211448
530.00 0.211188
530.50 0.211050
531.00 0.210842
531.50 0.210727
532.00 0.210446
532.50 0.210353
533.00 0.210253
533.50 0.210093
534.00 0.209743
534.50 0.209491
535.00 0.209388
535.50 0.209371
536.00 0.209233
536.50 0.208963
537.00 0.208735
537.50 0.208498
538.00 0.208348
538.50 0.208081
539.00 0.207967
539.50 0.207866
540.00 0.207793
540.50 0.207619
541.00 0.207304
541.50 0.207073
542.00 0.206774
542.50 0.206636
543.00 0.206403
543.50 0.206299
544.00 0.206078
544.50 0.205916
545.00 0.205741
545.50 0.205550
546.00 0.205370
546.50 0.205105
547.00 0.204905
547.50 0.204735
548.00 0.204582
548.50 0.204383
549.00 0.204151
549.50 0.203898
550.00 0.203761
550.50 0.203498
551.00 0.203315
551.50 0.202959
552.00 0.202796
552.50 0.202601
553.00 0.202460
553.50 0.202268
554.00 0.202058
554.50 0.201893
555.00 0.201664
555.50 0.201425
556.00 0.201107
556.50 0.200783
557.00 0.200537
557.50 0.200352
558.00 0.200160
558.50 0.199848
559.00 0.199600
559.50 0.199336
560.00 0.199123
560.50 0.198824
561.00 0.198587
561.50 0.198321
562.00 0.198058
562.50 0.197876
563.00 0.197615
563.50 0.197311
564.00 0.196846
564.50 0.196546
565.00 0.196297
565.50 0.196062
566.00 0.195677
566.50 0.195362
567.00 0.195114
567.50 0.194951
568.00 0.194695
568.50 0.194350
569.00 0.194063
569.50 0.193719
570.00 0.193512
570.50 0.193212
571.00 0.192983
571.50 0.192699
572.00 0.192447
572.50 0.192155
573.00 0.191923
573.50 0.191689
574.00 0.191472
574.50 0.191214
575.00 0.190928
575.50 0.190658
576.00 0.190336
576.50 0.190111
577.00 0.189828
577.50 0.189587
578.00 0.189247
578.50 0.188976
579.00 0.188752
579.50 0.188499
580.00 0.188231
580.50 0.187922
581.00 0.187690
581.50 0.187495
582.00 0.187257
582.50 0.187001
583.00 0.186697
583.50 0.186367
584.00 0.186018
584.50 0.185709
585.00 0.185427
585.50 0.185101
586.00 0.184698
586.50 0.184350
587.00 0.184021
587.50 0.183654
588.00 0.183246
588.50 0.182807
589.00 0.182464
589.50 0.182176
590.00 0.181879
590.50 0.181567
591.00 0.181158
591.50 0.180922
592.00 0.180689
592.50 0.180453
593.00 0.180141
593.50 0.179754
594.00 0.179374
594.50 0.178988
595.00 0.178762
595.50 0.178469
596.00 0.178149
596.50 0.177734
597.00 0.177386
597.50 0.177058
598.00 0.176743
598.50 0.176395
599.00 0.176070
599.50 0.175765
600.00 0.175515
600.50 0.175162
601.00 0.174792
601.50 0.174427
602.00 0.174128
602.50 0.173800
603.00 0.173468
603.50 0.173076
604.00 0.172695
604.50 0.172314
605.00 0.171920
605.50 0.171632
606.00 0.171284
606.50 0.170954
607.00 0.170539
607.50 0.170168
608.00 0.169851
608.50 0.169491
609.00 0.169135
609.50 0.168749
610.00 0.168387
610.50 0.167992
611.00 0.167704
611.50 0.167377
612.00 0.167085
612.50 0.166665
613.00 0.166263
613.50 0.165855
614.00 0.165460
614.50 0.165135
615.00 0.164812
615.50 0.164445
616.00 0.164027
616.50 0.163675
617.00 0.163410
617.50 0.163088
618.00 0.162734
618.50 0.162313
619.00 0.162003
619.50 0.161585
620.00 0.161271
620.50 0.160876
621.00 0.160563
621.50 0.160117
622.00 0.159860
622.50 0.159515
623.00 0.159198
623.50 0.158786
624.00 0.158453
624.50 0.158185
625.00 0.157876
625.50 0.157625
626.00 0.157370
626.50 0.156950
627.00 0.156572
627.50 0.156196
628.00 0.155939
628.50 0.155639
629.00 0.155153
629.50 0.154814
630.00 0.154425
630.50 0.154228
631.00 0.153793
631.50 0.153429
632.00 0.153013
632.50 0.152801
633.00 0.152494
633.50 0.152159
634.00 0.151774
634.50 0.151273
635.00 0.150977
635.50 0.150600
636.00 0.150343
636.50 0.149908
637.00 0.149570
637.50 0.149208
638.00 0.148946
638.50 0.148550
639.00 0.148211
639.50 0.147854
640.00 0.147531
640.50 0.147194
641.00 0.146800
641.50 0.146411
642.00 0.146083
642.50 0.145750
643.00 0.145419
643.50 0.145083
644.00 0.144782
644.50 0.144499
645.00 0.144226
645.50 0.143884
646.00 0.143591
646.50 0.143214
647.00 0.142866
647.50 0.142549
648.00 0.142312
648.50 0.142054
649.00 0.141766
649.50 0.141371
650.00 0.141092
650.50 0.140763
651.00 0.140474
651.50 0.140085
652.00 0.139723
652.50 0.139427
653.00 0.139221
653.50 0.138932
654.00 0.138614
654.50 0.138230
655.00 0.137922
655.50 0.137618
656.00 0.137399
656.50 0.137140
657.00 0.136771
657.50 0.136346
658.00 0.135915
658.50 0.135629
659.00 0.135271
659.50 0.135003
660.00 0.134797
660.50 0.134573
661.00 0.134311
661.50 0.133968
662.00 0.133680
662.50 0.133422
663.00 0.133196
663.50 0.133020
664.00 0.132729
664.50 0.132443
665.00 0.132137
665.50 0.131930
666.00 0.131621
666.50 0.131257
667.00 0.130863
667.50 0.130509
668.00 0.130199
668.50 0.129904
669.00 0.129688
669.50 0.129511
670.00 0.129271
670.50 0.128975
671.00 0.128624
671.50 0.128353
672.00 0.128050
672.50 0.127738
673.00 0.127399
673.50 0.127060
674.00 0.126835
674.50 0.126679
675.00 0.126496
675.50 0.126201
676.00 0.125969
676.50 0.125738
677.00 0.125516
677.50 0.125257
678.00 0.124943
678.50 0.124608
679.00 0.124182
679.50 0.123926
680.00 0.123679
680.50 0.123414
681.00 0.123191
681.50 0.122931
682.00 0.122702
682.50 0.122446
683.00 0.122218
683.50 0.122026
684.00 0.121765
684.50 0.121448
685.00 0.121164
685.50 0.120879
686.00 0.120686
686.50 0.120370
687.00 0.120105
687.50 0.119854
688.00 0.119655
688.50 0.119380
689.00 0.119064
689.50 0.118866
690.00 0.118674
690.50 0.118423
691.00 0.118095
691.50 0.117810
692.00 0.117627
692.50 0.117407
693.00 0.117141
693.50 0.116910
694.00 0.116703
694.50 0.116503
695.00 0.116373
695.50 0.116135
696.00 0.115858
696.50 0.115586
697.00 0.115432
697.50 0.115270
698.00 0.115090
698.50 0.114804
699.00 0.114670
699.50 0.114400
700.00 0.114246
700.50 0.113980
701.00 0.113745
701.50 0.113523
702.00 0.113310
702.50 0.113083
703.00 0.112855
703.50 0.112704
704.00 0.112604
704.50 0.112617
705.00 0.112387
705.50 0.112292
706.00 0.111979
706.50 0.111760
707.00 0.111517
707.50 0.111413
708.00 0.111282
708.50 0.111072
709.00 0.110854
709.50 0.110743
710.00 0.110573
710.50 0.110401
711.00 0.110222
711.50 0.110083
712.00 0.109934
712.50 0.109802
713.00 0.109527
713.50 0.109379
714.00 0.109317
714.50 0.109254
715.00 0.109165
715.50 0.109051
716.00 0.109067
716.50 0.108931
717.00 0.108804
717.50 0.108774
718.00 0.108715
718.50 0.108460
719.00 0.108356
719.50 0.108279
720.00 0.108332
720.50 0.108009
721.00 0.107753
721.50 0.107580
722.00 0.107643
722.50 0.107722
723.00 0.107697
723.50 0.107567
724.00 0.107428
724.50 0.107294
725.00 0.107174
725.50 0.107070
726.00 0.107033
726.50 0.107109
727.00 0.107177
727.50 0.107206
728.00 0.107139
728.50 0.107121
729.00 0.107010
729.50 0.107070
730.00 0.107189
730.50 0.107353
731.00 0.107377
731.50 0.107355
732.00 0.107527
732.50 0.107667
733.00 0.107696
733.50 0.107773
734.00 0.107780
734.50 0.107926
735.00 0.107826
735.50 0.107903
736.00 0.107888
736.50 0.107890
737.00 0.107763
737.50 0.107707
738.00 0.107722
738.50 0.107610
739.00 0.107478
739.50 0.107252
740.00 0.107238
740.50 0.107170
741.00 0.107125
741.50 0.106977
742.00 0.106880
742.50 0.106694
743.00 0.106495
743.50 0.106149
744.00 0.105909
744.50 0.105885
745.00 0.105808
745.50 0.105750
746.00 0.105545
746.50 0.105395
747.00 0.105213
747.50 0.105007
748.00 0.104807
748.50 0.104701
749.00 0.104494
749.50 0.104512
750.00 0.104460
750.50 0.104514
751.00 0.104282
751.50 0.104184
752.00 0.103924
752.50 0.103905
753.00 0.103642
753.50 0.103539
754.00 0.103341
754.50 0.103253
755.00 0.103163
755.50 0.103075
756.00 0.102923
756.50 0.102845
757.00 0.102694
757.50 0.102608
758.00 0.102411
758.50 0.102250
759.00 0.102241
759.50 0.102248
760.00 0.102184
760.50 0.102019
761.00 0.101811
761.50 0.101789
762.00 0.101716
762.50 0.101629
763.00 0.101319
763.50 0.101111
764.00 0.100926
764.50 0.100957
765.00 0.100820
765.50 0.100707
766.00 0.100470
766.50 0.100187
767.00 0.100042
767.50 0.099740
768.00 0.099645
768.50 0.099286
769.00 0.099294
769.50 0.099196
770.00 0.099159
770.50 0.098963
771.00 0.098652
771.50 0.098527
772.00 0.098351
772.50 0.098168
773.00 0.098049
773.50 0.097853
774.00 0.097923
774.50 0.097857
775.00 0.097740
775.50 0.097535
776.00 0.097358
776.50 0.097366
777.00 0.097394
777.50 0.097391
778.00 0.097457
778.50 0.097395
779.00 0.097424
779.50 0.097427
780.00 0.097410
780.50 0.097245
781.00 0.097064
781.50 0.096938
782.00 0.096802
782.50 0.096599
783.00 0.096416
783.50 0.096099
784.00 0.095931
784.50 0.095744
785.00 0.095901
785.50 0.095760
786.00 0.095562
786.50 0.095184
787.00 0.094946
787.50 0.094740
788.00 0.094498
788.50 0.094343
789.00 0.094222
789.50 0.094157
790.00 0.094050
790.50 0.093939
791.00 0.093699
791.50 0.093525
792.00 0.093296
792.50 0.093358
793.00 0.093098
793.50 0.092960
794.00 0.092675
794.50 0.092573
795.00 0.092547
795.50 0.092291
796.00 0.092257
796.50 0.092072
797.00 0.091876
797.50 0.091698
798.00 0.091628
798.50 0.091676
799.00 0.091580
799.50 0.091244
800.00 0.091036