File: data/14_05/.ipynb_checkpoints/X-checkpoint.txt
'File_250514_172242 - Storage 172242'
'Wavelength nm.' 'Abs.'
350.00 0.132471
350.50 0.132383
351.00 0.132244
351.50 0.132092
352.00 0.131976
352.50 0.131858
353.00 0.131538
353.50 0.131285
354.00 0.131008
354.50 0.130995
355.00 0.130884
355.50 0.130760
356.00 0.130418
356.50 0.130197
357.00 0.130012
357.50 0.129837
358.00 0.129676
358.50 0.129379
359.00 0.129276
359.50 0.129057
360.00 0.128981
360.50 0.128795
361.00 0.128707
361.50 0.128565
362.00 0.128401
362.50 0.128173
363.00 0.128082
363.50 0.127832
364.00 0.127604
364.50 0.127323
365.00 0.127291
365.50 0.127251
366.00 0.127152
366.50 0.126880
367.00 0.126713
367.50 0.126582
368.00 0.126410
368.50 0.126143
369.00 0.125910
369.50 0.125738
370.00 0.125660
370.50 0.125460
371.00 0.125396
371.50 0.125223
372.00 0.125143
372.50 0.124847
373.00 0.124542
373.50 0.124247
374.00 0.123981
374.50 0.123824
375.00 0.123586
375.50 0.123550
376.00 0.123419
376.50 0.123310
377.00 0.123089
377.50 0.122903
378.00 0.122741
378.50 0.122643
379.00 0.122392
379.50 0.122194
380.00 0.121944
380.50 0.121871
381.00 0.121760
381.50 0.121580
382.00 0.121306
382.50 0.121137
383.00 0.121147
383.50 0.121030
384.00 0.120871
384.50 0.120590
385.00 0.120506
385.50 0.120322
386.00 0.120202
386.50 0.120027
387.00 0.119915
387.50 0.119677
388.00 0.119550
388.50 0.119398
389.00 0.119345
389.50 0.119102
390.00 0.118956
390.50 0.118776
391.00 0.118681
391.50 0.118546
392.00 0.118386
392.50 0.118293
393.00 0.118136
393.50 0.117954
394.00 0.117764
394.50 0.117524
395.00 0.117304
395.50 0.117198
396.00 0.117097
396.50 0.117019
397.00 0.116831
397.50 0.116649
398.00 0.116592
398.50 0.116364
399.00 0.116276
399.50 0.116097
400.00 0.116032
400.50 0.115918
401.00 0.115790
401.50 0.115675
402.00 0.115477
402.50 0.115316
403.00 0.115168
403.50 0.114906
404.00 0.114689
404.50 0.114472
405.00 0.114414
405.50 0.114262
406.00 0.114129
406.50 0.114041
407.00 0.113956
407.50 0.113863
408.00 0.113702
408.50 0.113565
409.00 0.113486
409.50 0.113356
410.00 0.113209
410.50 0.113021
411.00 0.112838
411.50 0.112663
412.00 0.112495
412.50 0.112420
413.00 0.112373
413.50 0.112270
414.00 0.112149
414.50 0.111952
415.00 0.111847
415.50 0.111721
416.00 0.111605
416.50 0.111443
417.00 0.111289
417.50 0.111138
418.00 0.110989
418.50 0.110869
419.00 0.110834
419.50 0.110753
420.00 0.110725
420.50 0.110603
421.00 0.110481
421.50 0.110334
422.00 0.110160
422.50 0.110023
423.00 0.109856
423.50 0.109815
424.00 0.109766
424.50 0.109713
425.00 0.109574
425.50 0.109480
426.00 0.109340
426.50 0.109223
427.00 0.109119
427.50 0.108980
428.00 0.108874
428.50 0.108806
429.00 0.108773
429.50 0.108739
430.00 0.108550
430.50 0.108392
431.00 0.108332
431.50 0.108260
432.00 0.108178
432.50 0.107967
433.00 0.107943
433.50 0.107907
434.00 0.107899
434.50 0.107764
435.00 0.107644
435.50 0.107554
436.00 0.107551
436.50 0.107509
437.00 0.107358
437.50 0.107135
438.00 0.107058
438.50 0.107042
439.00 0.107035
439.50 0.106949
440.00 0.106852
440.50 0.106842
441.00 0.106817
441.50 0.106738
442.00 0.106590
442.50 0.106482
443.00 0.106432
443.50 0.106368
444.00 0.106305
444.50 0.106282
445.00 0.106240
445.50 0.106231
446.00 0.106141
446.50 0.106130
447.00 0.106021
447.50 0.106000
448.00 0.106002
448.50 0.105998
449.00 0.105963
449.50 0.105846
450.00 0.105784
450.50 0.105723
451.00 0.105730
451.50 0.105737
452.00 0.105678
452.50 0.105628
453.00 0.105555
453.50 0.105562
454.00 0.105478
454.50 0.105436
455.00 0.105451
455.50 0.105467
456.00 0.105483
456.50 0.105441
457.00 0.105389
457.50 0.105415
458.00 0.105376
458.50 0.105401
459.00 0.105303
459.50 0.105238
460.00 0.105128
460.50 0.105191
461.00 0.105208
461.50 0.105329
462.00 0.105216
462.50 0.105150
463.00 0.105086
463.50 0.105129
464.00 0.105174
464.50 0.105123
465.00 0.105045
465.50 0.105038
466.00 0.105121
466.50 0.105101
467.00 0.105090
467.50 0.105061
468.00 0.105108
468.50 0.105148
469.00 0.105061
469.50 0.105025
470.00 0.104985
470.50 0.105072
471.00 0.105043
471.50 0.105034
472.00 0.104938
472.50 0.105007
473.00 0.105031
473.50 0.105103
474.00 0.105074
474.50 0.105043
475.00 0.105002
475.50 0.105055
476.00 0.105079
476.50 0.105079
477.00 0.105041
477.50 0.105022
478.00 0.105039
478.50 0.105029
479.00 0.104986
479.50 0.104965
480.00 0.104957
480.50 0.104979
481.00 0.104945
481.50 0.104901
482.00 0.104888
482.50 0.104970
483.00 0.104988
483.50 0.105007
484.00 0.104988
484.50 0.105008
485.00 0.105018
485.50 0.104995
486.00 0.105006
486.50 0.104912
487.00 0.104845
487.50 0.104830
488.00 0.104915
488.50 0.104889
489.00 0.104851
489.50 0.104831
490.00 0.104852
490.50 0.104841
491.00 0.104745
491.50 0.104665
492.00 0.104690
492.50 0.104789
493.00 0.104857
493.50 0.104855
494.00 0.104760
494.50 0.104743
495.00 0.104675
495.50 0.104710
496.00 0.104743
496.50 0.104735
497.00 0.104755
497.50 0.104772
498.00 0.104785
498.50 0.104737
499.00 0.104733
499.50 0.104722
500.00 0.104745
500.50 0.104738
501.00 0.104746
501.50 0.104740
502.00 0.104645
502.50 0.104695
503.00 0.104699
503.50 0.104676
504.00 0.104569
504.50 0.104575
505.00 0.104641
505.50 0.104693
506.00 0.104639
506.50 0.104614
507.00 0.104632
507.50 0.104599
508.00 0.104663
508.50 0.104562
509.00 0.104556
509.50 0.104510
510.00 0.104592
510.50 0.104633
511.00 0.104568
511.50 0.104571
512.00 0.104560
512.50 0.104643
513.00 0.104544
513.50 0.104476
514.00 0.104376
514.50 0.104470
515.00 0.104545
515.50 0.104547
516.00 0.104480
516.50 0.104416
517.00 0.104482
517.50 0.104508
518.00 0.104499
518.50 0.104449
519.00 0.104404
519.50 0.104462
520.00 0.104387
520.50 0.104381
521.00 0.104330
521.50 0.104331
522.00 0.104372
522.50 0.104359
523.00 0.104382
523.50 0.104308
524.00 0.104311
524.50 0.104334
525.00 0.104267
525.50 0.104208
526.00 0.104115
526.50 0.104164
527.00 0.104203
527.50 0.104248
528.00 0.104239
528.50 0.104249
529.00 0.104317
529.50 0.104335
530.00 0.104303
530.50 0.104286
531.00 0.104296
531.50 0.104325
532.00 0.104265
532.50 0.104287
533.00 0.104296
533.50 0.104304
534.00 0.104252
534.50 0.104188
535.00 0.104174
535.50 0.104192
536.00 0.104244
536.50 0.104233
537.00 0.104209
537.50 0.104059
538.00 0.104075
538.50 0.103995
539.00 0.104047
539.50 0.104078
540.00 0.104116
540.50 0.104106
541.00 0.104002
541.50 0.103972
542.00 0.103914
542.50 0.103903
543.00 0.103896
543.50 0.103990
544.00 0.103912
544.50 0.103866
545.00 0.103806
545.50 0.103854
546.00 0.103858
546.50 0.103822
547.00 0.103790
547.50 0.103799
548.00 0.103746
548.50 0.103746
549.00 0.103662
549.50 0.103685
550.00 0.103684
550.50 0.103604
551.00 0.103589
551.50 0.103506
552.00 0.103654
552.50 0.103612
553.00 0.103706
553.50 0.103672
554.00 0.103718
554.50 0.103731
555.00 0.103701
555.50 0.103630
556.00 0.103587
556.50 0.103567
557.00 0.103571
557.50 0.103508
558.00 0.103429
558.50 0.103448
559.00 0.103415
559.50 0.103381
560.00 0.103354
560.50 0.103354
561.00 0.103409
561.50 0.103350
562.00 0.103306
562.50 0.103330
563.00 0.103309
563.50 0.103267
564.00 0.103160
564.50 0.103134
565.00 0.103181
565.50 0.103218
566.00 0.103123
566.50 0.103112
567.00 0.103014
567.50 0.103072
568.00 0.102979
568.50 0.102978
569.00 0.102965
569.50 0.103007
570.00 0.103036
570.50 0.103004
571.00 0.102948
571.50 0.102871
572.00 0.102834
572.50 0.102794
573.00 0.102779
573.50 0.102762
574.00 0.102780
574.50 0.102752
575.00 0.102801
575.50 0.102720
576.00 0.102699
576.50 0.102639
577.00 0.102553
577.50 0.102507
578.00 0.102427
578.50 0.102469
579.00 0.102420
579.50 0.102385
580.00 0.102358
580.50 0.102368
581.00 0.102316
581.50 0.102277
582.00 0.102238
582.50 0.102226
583.00 0.102170
583.50 0.102048
584.00 0.102001
584.50 0.101978
585.00 0.101963
585.50 0.101906
586.00 0.101818
586.50 0.101830
587.00 0.101875
587.50 0.101910
588.00 0.101908
588.50 0.101823
589.00 0.101779
589.50 0.101729
590.00 0.101728
590.50 0.101677
591.00 0.101659
591.50 0.101640
592.00 0.101676
592.50 0.101682
593.00 0.101630
593.50 0.101508
594.00 0.101413
594.50 0.101363
595.00 0.101436
595.50 0.101476
596.00 0.101497
596.50 0.101462
597.00 0.101425
597.50 0.101425
598.00 0.101428
598.50 0.101354
599.00 0.101259
599.50 0.101159
600.00 0.101188
600.50 0.101161
601.00 0.101101
601.50 0.101013
602.00 0.101044
602.50 0.101048
603.00 0.101035
603.50 0.100948
604.00 0.100849
604.50 0.100764
605.00 0.100688
605.50 0.100664
606.00 0.100605
606.50 0.100507
607.00 0.100422
607.50 0.100395
608.00 0.100382
608.50 0.100334
609.00 0.100267
609.50 0.100224
610.00 0.100166
610.50 0.100129
611.00 0.100025
611.50 0.099994
612.00 0.099945
612.50 0.099896
613.00 0.099765
613.50 0.099615
614.00 0.099531
614.50 0.099506
615.00 0.099513
615.50 0.099383
616.00 0.099269
616.50 0.099170
617.00 0.099206
617.50 0.099207
618.00 0.099145
618.50 0.099046
619.00 0.099032
619.50 0.098899
620.00 0.098831
620.50 0.098667
621.00 0.098588
621.50 0.098499
622.00 0.098497
622.50 0.098541
623.00 0.098483
623.50 0.098410
624.00 0.098331
624.50 0.098401
625.00 0.098341
625.50 0.098342
626.00 0.098335
626.50 0.098276
627.00 0.098208
627.50 0.098104
628.00 0.098095
628.50 0.098046
629.00 0.097925
629.50 0.097819
630.00 0.097725
630.50 0.097754
631.00 0.097755
631.50 0.097661
632.00 0.097509
632.50 0.097365
633.00 0.097356
633.50 0.097263
634.00 0.097233
634.50 0.097121
635.00 0.097152
635.50 0.097133
636.00 0.097079
636.50 0.097000
637.00 0.096877
637.50 0.096811
638.00 0.096735
638.50 0.096693
639.00 0.096601
639.50 0.096487
640.00 0.096441
640.50 0.096388
641.00 0.096357
641.50 0.096307
642.00 0.096257
642.50 0.096156
643.00 0.096051
643.50 0.095972
644.00 0.095956
644.50 0.095860
645.00 0.095784
645.50 0.095722
646.00 0.095707
646.50 0.095684
647.00 0.095579
647.50 0.095555
648.00 0.095580
648.50 0.095499
649.00 0.095443
649.50 0.095248
650.00 0.095189
650.50 0.095102
651.00 0.095103
651.50 0.095068
652.00 0.094940
652.50 0.094860
653.00 0.094835
653.50 0.094854
654.00 0.094845
654.50 0.094824
655.00 0.094759
655.50 0.094703
656.00 0.094688
656.50 0.094674
657.00 0.094592
657.50 0.094454
658.00 0.094347
658.50 0.094265
659.00 0.094194
659.50 0.094126
660.00 0.094130
660.50 0.094120
661.00 0.094159
661.50 0.094158
662.00 0.094162
662.50 0.094207
663.00 0.094278
663.50 0.094332
664.00 0.094268
664.50 0.094189
665.00 0.094202
665.50 0.094155
666.00 0.094121
666.50 0.093952
667.00 0.093913
667.50 0.093803
668.00 0.093787
668.50 0.093697
669.00 0.093759
669.50 0.093790
670.00 0.093790
670.50 0.093690
671.00 0.093563
671.50 0.093454
672.00 0.093468
672.50 0.093463
673.00 0.093428
673.50 0.093351
674.00 0.093248
674.50 0.093306
675.00 0.093219
675.50 0.093173
676.00 0.093112
676.50 0.093154
677.00 0.093173
677.50 0.093109
678.00 0.093003
678.50 0.092865
679.00 0.092798
679.50 0.092757
680.00 0.092743
680.50 0.092642
681.00 0.092621
681.50 0.092633
682.00 0.092589
682.50 0.092440
683.00 0.092440
683.50 0.092477
684.00 0.092564
684.50 0.092412
685.00 0.092344
685.50 0.092273
686.00 0.092167
686.50 0.092040
687.00 0.091909
687.50 0.091914
688.00 0.091903
688.50 0.091838
689.00 0.091746
689.50 0.091686
690.00 0.091600
690.50 0.091595
691.00 0.091602
691.50 0.091597
692.00 0.091533
692.50 0.091441
693.00 0.091399
693.50 0.091398
694.00 0.091360
694.50 0.091421
695.00 0.091458
695.50 0.091374
696.00 0.091286
696.50 0.091178
697.00 0.091152
697.50 0.091009
698.00 0.090966
698.50 0.090950
699.00 0.091075
699.50 0.091089
700.00 0.091057
700.50 0.090977
701.00 0.090869
701.50 0.090941
702.00 0.090932
702.50 0.090952
703.00 0.090939
703.50 0.090868
704.00 0.090787
704.50 0.090747
705.00 0.090717
705.50 0.090792
706.00 0.090808
706.50 0.090736
707.00 0.090736
707.50 0.090634
708.00 0.090633
708.50 0.090620
709.00 0.090708
709.50 0.090751
710.00 0.090719
710.50 0.090703
711.00 0.090780
711.50 0.090798
712.00 0.090820
712.50 0.090871
713.00 0.090773
713.50 0.090750
714.00 0.090796
714.50 0.090881
715.00 0.090892
715.50 0.090849
716.00 0.090939
716.50 0.090886
717.00 0.090970
717.50 0.090966
718.00 0.091194
718.50 0.091103
719.00 0.091325
719.50 0.091254
720.00 0.091388
720.50 0.091229
721.00 0.091289
721.50 0.091270
722.00 0.091400
722.50 0.091564
723.00 0.091738
723.50 0.091826
724.00 0.091825
724.50 0.091866
725.00 0.091877
725.50 0.091888
726.00 0.091989
726.50 0.092032
727.00 0.092314
727.50 0.092385
728.00 0.092487
728.50 0.092458
729.00 0.092479
729.50 0.092823
730.00 0.093034
730.50 0.093247
731.00 0.093369
731.50 0.093520
732.00 0.093831
732.50 0.093974
733.00 0.094191
733.50 0.094404
734.00 0.094550
734.50 0.094717
735.00 0.094818
735.50 0.095005
736.00 0.095163
736.50 0.095289
737.00 0.095306
737.50 0.095492
738.00 0.095626
738.50 0.095692
739.00 0.095550
739.50 0.095568
740.00 0.095542
740.50 0.095542
741.00 0.095451
741.50 0.095425
742.00 0.095390
742.50 0.095374
743.00 0.095408
743.50 0.095354
744.00 0.095224
744.50 0.095261
745.00 0.095242
745.50 0.095224
746.00 0.095063
746.50 0.095013
747.00 0.095059
747.50 0.095075
748.00 0.095020
748.50 0.094998
749.00 0.094842
749.50 0.094921
750.00 0.094815
750.50 0.094795
751.00 0.094572
751.50 0.094398
752.00 0.094403
752.50 0.094376
753.00 0.094310
753.50 0.094126
754.00 0.094200
754.50 0.094173
755.00 0.094289
755.50 0.094117
756.00 0.094151
756.50 0.094159
757.00 0.094106
757.50 0.093980
758.00 0.093780
758.50 0.093682
759.00 0.093676
759.50 0.093752
760.00 0.093791
760.50 0.093864
761.00 0.093807
761.50 0.093747
762.00 0.093546
762.50 0.093487
763.00 0.093307
763.50 0.093103
764.00 0.093009
764.50 0.093115
765.00 0.093153
765.50 0.093038
766.00 0.093042
766.50 0.093065
767.00 0.093025
767.50 0.092928
768.00 0.092909
768.50 0.092726
769.00 0.092501
769.50 0.092405
770.00 0.092497
770.50 0.092558
771.00 0.092387
771.50 0.092324
772.00 0.092316
772.50 0.092233
773.00 0.092125
773.50 0.091891
774.00 0.091825
774.50 0.091820
775.00 0.091855
775.50 0.091902
776.00 0.091689
776.50 0.091530
777.00 0.091362
777.50 0.091286
778.00 0.091232
778.50 0.091207
779.00 0.091178
779.50 0.091047
780.00 0.090943
780.50 0.090849
781.00 0.090809
781.50 0.090670
782.00 0.090640
782.50 0.090658
783.00 0.090700
783.50 0.090441
784.00 0.090150
784.50 0.089979
785.00 0.090076
785.50 0.090150
786.00 0.090105
786.50 0.089871
787.00 0.089698
787.50 0.089467
788.00 0.089362
788.50 0.089124
789.00 0.089073
789.50 0.089109
790.00 0.089233
790.50 0.089088
791.00 0.088876
791.50 0.088699
792.00 0.088738
792.50 0.088776
793.00 0.088718
793.50 0.088473
794.00 0.088355
794.50 0.088309
795.00 0.088326
795.50 0.088080
796.00 0.087922
796.50 0.087710
797.00 0.087529
797.50 0.087436
798.00 0.087408
798.50 0.087420
799.00 0.087320
799.50 0.087146
800.00 0.087017