File: data/14_05/B.txt
'B - Storage 180652'
'Wavelength nm.' 'Abs.'
350.00 0.634882
350.50 0.634692
351.00 0.634337
351.50 0.634018
352.00 0.633636
352.50 0.633359
353.00 0.632916
353.50 0.632546
354.00 0.632029
354.50 0.631689
355.00 0.631094
355.50 0.630526
356.00 0.629882
356.50 0.629482
357.00 0.629256
357.50 0.628900
358.00 0.628321
358.50 0.627738
359.00 0.627531
359.50 0.627200
360.00 0.626451
360.50 0.625395
361.00 0.624624
361.50 0.624020
362.00 0.623567
362.50 0.622901
363.00 0.622491
363.50 0.621885
364.00 0.621418
364.50 0.620816
365.00 0.620407
365.50 0.620116
366.00 0.619687
366.50 0.619010
367.00 0.618384
367.50 0.617664
368.00 0.617079
368.50 0.616392
369.00 0.615840
369.50 0.615108
370.00 0.614630
370.50 0.614199
371.00 0.613988
371.50 0.613571
372.00 0.613078
372.50 0.612627
373.00 0.611662
373.50 0.610914
374.00 0.609992
374.50 0.609487
375.00 0.608903
375.50 0.608417
376.00 0.607831
376.50 0.607281
377.00 0.606704
377.50 0.606199
378.00 0.605681
378.50 0.605199
379.00 0.604783
379.50 0.604131
380.00 0.603658
380.50 0.603108
381.00 0.602580
381.50 0.601929
382.00 0.601282
382.50 0.600744
383.00 0.600406
383.50 0.600046
384.00 0.599659
384.50 0.599021
385.00 0.598459
385.50 0.597908
386.00 0.597366
386.50 0.596684
387.00 0.596069
387.50 0.595426
388.00 0.595027
388.50 0.594508
389.00 0.594112
389.50 0.593514
390.00 0.593045
390.50 0.592472
391.00 0.591837
391.50 0.591231
392.00 0.590581
392.50 0.590070
393.00 0.589599
393.50 0.589049
394.00 0.588558
394.50 0.587931
395.00 0.587391
395.50 0.586878
396.00 0.586336
396.50 0.585837
397.00 0.585277
397.50 0.584750
398.00 0.584123
398.50 0.583503
399.00 0.582955
399.50 0.582391
400.00 0.581881
400.50 0.581471
401.00 0.581036
401.50 0.580574
402.00 0.579953
402.50 0.579480
403.00 0.578924
403.50 0.578077
404.00 0.577244
404.50 0.576446
405.00 0.575978
405.50 0.575497
406.00 0.575012
406.50 0.574513
407.00 0.573980
407.50 0.573429
408.00 0.572920
408.50 0.572337
409.00 0.571867
409.50 0.571158
410.00 0.570607
410.50 0.570029
411.00 0.569544
411.50 0.568990
412.00 0.568226
412.50 0.567660
413.00 0.567138
413.50 0.566740
414.00 0.566155
414.50 0.565373
415.00 0.564729
415.50 0.564183
416.00 0.563734
416.50 0.563171
417.00 0.562547
417.50 0.561822
418.00 0.561183
418.50 0.560607
419.00 0.560090
419.50 0.559552
420.00 0.559108
420.50 0.558661
421.00 0.558162
421.50 0.557412
422.00 0.556633
422.50 0.555934
423.00 0.555334
423.50 0.554886
424.00 0.554219
424.50 0.553621
425.00 0.552954
425.50 0.552439
426.00 0.551887
426.50 0.551379
427.00 0.550844
427.50 0.550271
428.00 0.549685
428.50 0.549002
429.00 0.548393
429.50 0.547755
430.00 0.547186
430.50 0.546546
431.00 0.545949
431.50 0.545443
432.00 0.544847
432.50 0.544271
433.00 0.543675
433.50 0.543263
434.00 0.542783
434.50 0.542236
435.00 0.541653
435.50 0.541049
436.00 0.540547
436.50 0.539879
437.00 0.539346
437.50 0.538670
438.00 0.538185
438.50 0.537625
439.00 0.537073
439.50 0.536439
440.00 0.535691
440.50 0.535107
441.00 0.534550
441.50 0.533929
442.00 0.533343
442.50 0.532945
443.00 0.532501
443.50 0.531988
444.00 0.531330
444.50 0.530873
445.00 0.530331
445.50 0.529815
446.00 0.529235
446.50 0.528840
447.00 0.528317
447.50 0.527940
448.00 0.527395
448.50 0.526838
449.00 0.526085
449.50 0.525459
450.00 0.524888
450.50 0.524314
451.00 0.523643
451.50 0.523285
452.00 0.523071
452.50 0.522738
453.00 0.522172
453.50 0.521577
454.00 0.521072
454.50 0.520597
455.00 0.520205
455.50 0.519851
456.00 0.519404
456.50 0.518768
457.00 0.518245
457.50 0.517769
458.00 0.517309
458.50 0.516844
459.00 0.516343
459.50 0.515884
460.00 0.515303
460.50 0.514866
461.00 0.514465
461.50 0.514116
462.00 0.513457
462.50 0.512935
463.00 0.512374
463.50 0.512003
464.00 0.511694
464.50 0.511397
465.00 0.511049
465.50 0.510470
466.00 0.509905
466.50 0.509327
467.00 0.508935
467.50 0.508441
468.00 0.507973
468.50 0.507395
469.00 0.506867
469.50 0.506415
470.00 0.505987
470.50 0.505529
471.00 0.504938
471.50 0.504412
472.00 0.503850
472.50 0.503401
473.00 0.502733
473.50 0.502218
474.00 0.501570
474.50 0.501037
475.00 0.500464
475.50 0.500101
476.00 0.499704
476.50 0.499269
477.00 0.498748
477.50 0.498327
478.00 0.497826
478.50 0.497279
479.00 0.496582
479.50 0.496083
480.00 0.495654
480.50 0.495234
481.00 0.494690
481.50 0.494028
482.00 0.493456
482.50 0.492839
483.00 0.492227
483.50 0.491589
484.00 0.490929
484.50 0.490370
485.00 0.489769
485.50 0.489216
486.00 0.488737
486.50 0.488167
487.00 0.487659
487.50 0.487099
488.00 0.486773
488.50 0.486265
489.00 0.485747
489.50 0.485102
490.00 0.484689
490.50 0.484130
491.00 0.483547
491.50 0.482922
492.00 0.482624
492.50 0.482286
493.00 0.481892
493.50 0.481296
494.00 0.480777
494.50 0.480285
495.00 0.479721
495.50 0.479134
496.00 0.478585
496.50 0.478071
497.00 0.477706
497.50 0.477307
498.00 0.476891
498.50 0.476332
499.00 0.475786
499.50 0.475244
500.00 0.474716
500.50 0.474189
501.00 0.473741
501.50 0.473278
502.00 0.472796
502.50 0.472374
503.00 0.471934
503.50 0.471476
504.00 0.470910
504.50 0.470473
505.00 0.470100
505.50 0.469651
506.00 0.469155
506.50 0.468603
507.00 0.468169
507.50 0.467604
508.00 0.467189
508.50 0.466722
509.00 0.466471
509.50 0.465986
510.00 0.465525
510.50 0.464924
511.00 0.464496
511.50 0.464067
512.00 0.463566
512.50 0.462942
513.00 0.462251
513.50 0.461749
514.00 0.461320
514.50 0.461104
515.00 0.460711
515.50 0.460236
516.00 0.459583
516.50 0.459044
517.00 0.458572
517.50 0.458139
518.00 0.457596
518.50 0.456965
519.00 0.456596
519.50 0.456297
520.00 0.455999
520.50 0.455394
521.00 0.454897
521.50 0.454442
522.00 0.453973
522.50 0.453413
523.00 0.452940
523.50 0.452590
524.00 0.452158
524.50 0.451726
525.00 0.451229
525.50 0.450791
526.00 0.450382
526.50 0.449978
527.00 0.449615
527.50 0.449083
528.00 0.448557
528.50 0.448020
529.00 0.447664
529.50 0.447167
530.00 0.446679
530.50 0.445999
531.00 0.445458
531.50 0.444847
532.00 0.444262
532.50 0.443671
533.00 0.443078
533.50 0.442644
534.00 0.442039
534.50 0.441626
535.00 0.441080
535.50 0.440653
536.00 0.440024
536.50 0.439331
537.00 0.438711
537.50 0.438160
538.00 0.437674
538.50 0.437123
539.00 0.436547
539.50 0.436029
540.00 0.435533
540.50 0.435064
541.00 0.434562
541.50 0.434077
542.00 0.433518
542.50 0.433055
543.00 0.432549
543.50 0.432165
544.00 0.431582
544.50 0.431074
545.00 0.430528
545.50 0.430163
546.00 0.429648
546.50 0.429135
547.00 0.428570
547.50 0.428163
548.00 0.427710
548.50 0.427307
549.00 0.426670
549.50 0.426097
550.00 0.425554
550.50 0.425068
551.00 0.424617
551.50 0.424078
552.00 0.423741
552.50 0.423271
553.00 0.422847
553.50 0.422409
554.00 0.422009
554.50 0.421539
555.00 0.421002
555.50 0.420498
556.00 0.419925
556.50 0.419440
557.00 0.418955
557.50 0.418598
558.00 0.418133
558.50 0.417635
559.00 0.417074
559.50 0.416539
560.00 0.416043
560.50 0.415640
561.00 0.415300
561.50 0.414897
562.00 0.414459
562.50 0.413971
563.00 0.413556
563.50 0.412992
564.00 0.412483
564.50 0.411979
565.00 0.411672
565.50 0.411353
566.00 0.411005
566.50 0.410570
567.00 0.410084
567.50 0.409709
568.00 0.409303
568.50 0.408925
569.00 0.408488
569.50 0.408081
570.00 0.407600
570.50 0.407180
571.00 0.406690
571.50 0.406302
572.00 0.405933
572.50 0.405513
573.00 0.405196
573.50 0.404786
574.00 0.404547
574.50 0.404143
575.00 0.403768
575.50 0.403312
576.00 0.402756
576.50 0.402217
577.00 0.401645
577.50 0.401261
578.00 0.400772
578.50 0.400339
579.00 0.399868
579.50 0.399372
580.00 0.398880
580.50 0.398312
581.00 0.397735
581.50 0.397137
582.00 0.396579
582.50 0.395978
583.00 0.395359
583.50 0.394650
584.00 0.394084
584.50 0.393558
585.00 0.393132
585.50 0.392590
586.00 0.392007
586.50 0.391467
587.00 0.391016
587.50 0.390584
588.00 0.390116
588.50 0.389549
589.00 0.388986
589.50 0.388537
590.00 0.388135
590.50 0.387776
591.00 0.387293
591.50 0.387158
592.00 0.386932
592.50 0.386741
593.00 0.386184
593.50 0.385693
594.00 0.385166
594.50 0.384786
595.00 0.384439
595.50 0.384115
596.00 0.383673
596.50 0.383208
597.00 0.382741
597.50 0.382261
598.00 0.381741
598.50 0.381262
599.00 0.380781
599.50 0.380321
600.00 0.379962
600.50 0.379561
601.00 0.379180
601.50 0.378685
602.00 0.378309
602.50 0.377896
603.00 0.377429
603.50 0.376938
604.00 0.376500
604.50 0.376031
605.00 0.375564
605.50 0.375174
606.00 0.374788
606.50 0.374396
607.00 0.373895
607.50 0.373455
608.00 0.373059
608.50 0.372549
609.00 0.372104
609.50 0.371583
610.00 0.371190
610.50 0.370692
611.00 0.370297
611.50 0.369873
612.00 0.369463
612.50 0.368960
613.00 0.368461
613.50 0.367986
614.00 0.367548
614.50 0.367195
615.00 0.366773
615.50 0.366292
616.00 0.365717
616.50 0.365271
617.00 0.364836
617.50 0.364440
618.00 0.364031
618.50 0.363559
619.00 0.363107
619.50 0.362583
620.00 0.362158
620.50 0.361685
621.00 0.361233
621.50 0.360842
622.00 0.360617
622.50 0.360271
623.00 0.359818
623.50 0.359298
624.00 0.358795
624.50 0.358533
625.00 0.358210
625.50 0.358067
626.00 0.357815
626.50 0.357411
627.00 0.357017
627.50 0.356488
628.00 0.356157
628.50 0.355771
629.00 0.355313
629.50 0.354861
630.00 0.354456
630.50 0.354164
631.00 0.353716
631.50 0.353196
632.00 0.352735
632.50 0.352342
633.00 0.351939
633.50 0.351439
634.00 0.350961
634.50 0.350474
635.00 0.350105
635.50 0.349782
636.00 0.349347
636.50 0.348888
637.00 0.348310
637.50 0.347941
638.00 0.347584
638.50 0.347271
639.00 0.346909
639.50 0.346454
640.00 0.346105
640.50 0.345686
641.00 0.345320
641.50 0.344851
642.00 0.344522
642.50 0.344157
643.00 0.343759
643.50 0.343243
644.00 0.342790
644.50 0.342416
645.00 0.342143
645.50 0.341739
646.00 0.341382
646.50 0.340966
647.00 0.340634
647.50 0.340301
648.00 0.339976
648.50 0.339643
649.00 0.339320
649.50 0.338965
650.00 0.338575
650.50 0.338165
651.00 0.337710
651.50 0.337394
652.00 0.336934
652.50 0.336587
653.00 0.336215
653.50 0.335898
654.00 0.335532
654.50 0.335085
655.00 0.334720
655.50 0.334417
656.00 0.334179
656.50 0.333882
657.00 0.333360
657.50 0.332935
658.00 0.332420
658.50 0.332138
659.00 0.331773
659.50 0.331400
660.00 0.331098
660.50 0.330752
661.00 0.330538
661.50 0.330247
662.00 0.330031
662.50 0.329889
663.00 0.329636
663.50 0.329276
664.00 0.328868
664.50 0.328425
665.00 0.327985
665.50 0.327550
666.00 0.327055
666.50 0.326627
667.00 0.326145
667.50 0.325731
668.00 0.325302
668.50 0.324874
669.00 0.324690
669.50 0.324524
670.00 0.324334
670.50 0.323953
671.00 0.323520
671.50 0.323034
672.00 0.322686
672.50 0.322331
673.00 0.322055
673.50 0.321681
674.00 0.321501
674.50 0.321346
675.00 0.321135
675.50 0.320775
676.00 0.320462
676.50 0.320224
677.00 0.319932
677.50 0.319611
678.00 0.319226
678.50 0.318773
679.00 0.318330
679.50 0.317990
680.00 0.317701
680.50 0.317334
681.00 0.316968
681.50 0.316595
682.00 0.316281
682.50 0.316023
683.00 0.315935
683.50 0.315755
684.00 0.315474
684.50 0.315030
685.00 0.314666
685.50 0.314323
686.00 0.313955
686.50 0.313585
687.00 0.313222
687.50 0.312902
688.00 0.312683
688.50 0.312433
689.00 0.312119
689.50 0.311785
690.00 0.311378
690.50 0.311177
691.00 0.310851
691.50 0.310667
692.00 0.310246
692.50 0.309936
693.00 0.309609
693.50 0.309422
694.00 0.309099
694.50 0.308723
695.00 0.308400
695.50 0.308101
696.00 0.307975
696.50 0.307748
697.00 0.307519
697.50 0.307181
698.00 0.306839
698.50 0.306589
699.00 0.306294
699.50 0.306033
700.00 0.305816
700.50 0.305609
701.00 0.305358
701.50 0.305067
702.00 0.304731
702.50 0.304414
703.00 0.304091
703.50 0.303807
704.00 0.303567
704.50 0.303446
705.00 0.303099
705.50 0.302925
706.00 0.302604
706.50 0.302405
707.00 0.302155
707.50 0.301905
708.00 0.301702
708.50 0.301433
709.00 0.301149
709.50 0.300900
710.00 0.300569
710.50 0.300362
711.00 0.299979
711.50 0.299813
712.00 0.299621
712.50 0.299648
713.00 0.299401
713.50 0.299173
714.00 0.298935
714.50 0.298704
715.00 0.298532
715.50 0.298340
716.00 0.298214
716.50 0.297863
717.00 0.297620
717.50 0.297558
718.00 0.297569
718.50 0.297431
719.00 0.297324
719.50 0.297162
720.00 0.297058
720.50 0.296649
721.00 0.296408
721.50 0.296248
722.00 0.296171
722.50 0.296110
723.00 0.295838
723.50 0.295609
724.00 0.295454
724.50 0.295327
725.00 0.295157
725.50 0.294806
726.00 0.294624
726.50 0.294507
727.00 0.294491
727.50 0.294418
728.00 0.294168
728.50 0.294022
729.00 0.293735
729.50 0.293843
730.00 0.293762
730.50 0.293874
731.00 0.293898
731.50 0.293902
732.00 0.293789
732.50 0.293694
733.00 0.293583
733.50 0.293548
734.00 0.293367
734.50 0.293310
735.00 0.293141
735.50 0.293153
736.00 0.293049
736.50 0.293058
737.00 0.292834
737.50 0.292704
738.00 0.292676
738.50 0.292562
739.00 0.292472
739.50 0.292120
740.00 0.291995
740.50 0.291782
741.00 0.291691
741.50 0.291313
742.00 0.291025
742.50 0.290751
743.00 0.290652
743.50 0.290272
744.00 0.289975
744.50 0.289705
745.00 0.289553
745.50 0.289357
746.00 0.289081
746.50 0.288880
747.00 0.288647
747.50 0.288475
748.00 0.288189
748.50 0.288034
749.00 0.287820
749.50 0.287582
750.00 0.287290
750.50 0.287108
751.00 0.286940
751.50 0.286593
752.00 0.286289
752.50 0.286145
753.00 0.286004
753.50 0.285699
754.00 0.285418
754.50 0.285141
755.00 0.284908
755.50 0.284651
756.00 0.284468
756.50 0.284369
757.00 0.284163
757.50 0.283911
758.00 0.283528
758.50 0.283323
759.00 0.283061
759.50 0.282897
760.00 0.282629
760.50 0.282348
761.00 0.281957
761.50 0.281673
762.00 0.281503
762.50 0.281304
763.00 0.280854
763.50 0.280395
764.00 0.280138
764.50 0.280101
765.00 0.279992
765.50 0.279887
766.00 0.279685
766.50 0.279554
767.00 0.279289
767.50 0.278912
768.00 0.278481
768.50 0.278099
769.00 0.277847
769.50 0.277587
770.00 0.277383
770.50 0.277239
771.00 0.277077
771.50 0.276891
772.00 0.276682
772.50 0.276478
773.00 0.276188
773.50 0.275868
774.00 0.275656
774.50 0.275580
775.00 0.275409
775.50 0.275168
776.00 0.274892
776.50 0.274790
777.00 0.274674
777.50 0.274515
778.00 0.274300
778.50 0.274210
779.00 0.274032
779.50 0.273767
780.00 0.273359
780.50 0.272961
781.00 0.272504
781.50 0.272052
782.00 0.271779
782.50 0.271564
783.00 0.271405
783.50 0.271037
784.00 0.270853
784.50 0.270745
785.00 0.270936
785.50 0.270912
786.00 0.270671
786.50 0.270302
787.00 0.270137
787.50 0.270048
788.00 0.269949
788.50 0.269582
789.00 0.269406
789.50 0.269036
790.00 0.268826
790.50 0.268369
791.00 0.267913
791.50 0.267355
792.00 0.266884
792.50 0.266459
793.00 0.265973
793.50 0.265459
794.00 0.265030
794.50 0.264755
795.00 0.264622
795.50 0.264280
796.00 0.264182
796.50 0.263611
797.00 0.263383
797.50 0.262928
798.00 0.262904
798.50 0.262615
799.00 0.262428
799.50 0.262001
800.00 0.261769