File: data/14_05/File_250514_172903.txt
'File_250514_172903 - Storage 172903'
'Wavelength nm.' 'Abs.'
350.00 0.106791
350.50 0.106677
351.00 0.106390
351.50 0.106211
352.00 0.106130
352.50 0.106173
353.00 0.105852
353.50 0.105568
354.00 0.105330
354.50 0.105278
355.00 0.105136
355.50 0.104915
356.00 0.104681
356.50 0.104410
357.00 0.104141
357.50 0.103830
358.00 0.103530
358.50 0.103203
359.00 0.103037
359.50 0.102899
360.00 0.102883
360.50 0.102637
361.00 0.102525
361.50 0.102330
362.00 0.102168
362.50 0.101928
363.00 0.101771
363.50 0.101598
364.00 0.101399
364.50 0.101150
365.00 0.101098
365.50 0.100972
366.00 0.100861
366.50 0.100634
367.00 0.100520
367.50 0.100339
368.00 0.100103
368.50 0.099828
369.00 0.099565
369.50 0.099379
370.00 0.099292
370.50 0.099133
371.00 0.098897
371.50 0.098634
372.00 0.098407
372.50 0.098206
373.00 0.097812
373.50 0.097520
374.00 0.097237
374.50 0.097181
375.00 0.096991
375.50 0.096960
376.00 0.096826
376.50 0.096752
377.00 0.096463
377.50 0.096189
378.00 0.095953
378.50 0.095845
379.00 0.095633
379.50 0.095412
380.00 0.095165
380.50 0.094997
381.00 0.094796
381.50 0.094563
382.00 0.094297
382.50 0.094146
383.00 0.094046
383.50 0.093935
384.00 0.093672
384.50 0.093412
385.00 0.093270
385.50 0.093205
386.00 0.093030
386.50 0.092798
387.00 0.092555
387.50 0.092373
388.00 0.092254
388.50 0.092140
389.00 0.091962
389.50 0.091725
390.00 0.091560
390.50 0.091465
391.00 0.091287
391.50 0.091034
392.00 0.090816
392.50 0.090663
393.00 0.090543
393.50 0.090326
394.00 0.090215
394.50 0.089983
395.00 0.089830
395.50 0.089648
396.00 0.089502
396.50 0.089380
397.00 0.089102
397.50 0.088967
398.00 0.088777
398.50 0.088649
399.00 0.088427
399.50 0.088239
400.00 0.088129
400.50 0.088063
401.00 0.087912
401.50 0.087723
402.00 0.087591
402.50 0.087408
403.00 0.087321
403.50 0.087035
404.00 0.086832
404.50 0.086531
405.00 0.086377
405.50 0.086242
406.00 0.086108
406.50 0.085956
407.00 0.085800
407.50 0.085622
408.00 0.085481
408.50 0.085368
409.00 0.085318
409.50 0.085204
410.00 0.085041
410.50 0.084856
411.00 0.084655
411.50 0.084536
412.00 0.084427
412.50 0.084333
413.00 0.084218
413.50 0.084134
414.00 0.083960
414.50 0.083793
415.00 0.083603
415.50 0.083463
416.00 0.083260
416.50 0.083086
417.00 0.082983
417.50 0.082852
418.00 0.082712
418.50 0.082580
419.00 0.082594
419.50 0.082470
420.00 0.082325
420.50 0.082081
421.00 0.081912
421.50 0.081766
422.00 0.081630
422.50 0.081463
423.00 0.081267
423.50 0.081085
424.00 0.081058
424.50 0.080996
425.00 0.080826
425.50 0.080631
426.00 0.080448
426.50 0.080385
427.00 0.080303
427.50 0.080182
428.00 0.080026
428.50 0.079905
429.00 0.079828
429.50 0.079750
430.00 0.079626
430.50 0.079453
431.00 0.079419
431.50 0.079361
432.00 0.079249
432.50 0.078950
433.00 0.078799
433.50 0.078735
434.00 0.078748
434.50 0.078632
435.00 0.078532
435.50 0.078393
436.00 0.078279
436.50 0.078224
437.00 0.078167
437.50 0.077996
438.00 0.077805
438.50 0.077737
439.00 0.077693
439.50 0.077596
440.00 0.077410
440.50 0.077310
441.00 0.077263
441.50 0.077160
442.00 0.077059
442.50 0.076945
443.00 0.076881
443.50 0.076740
444.00 0.076631
444.50 0.076572
445.00 0.076482
445.50 0.076469
446.00 0.076337
446.50 0.076350
447.00 0.076226
447.50 0.076261
448.00 0.076148
448.50 0.076107
449.00 0.075944
449.50 0.075879
450.00 0.075816
450.50 0.075751
451.00 0.075729
451.50 0.075654
452.00 0.075640
452.50 0.075513
453.00 0.075461
453.50 0.075402
454.00 0.075329
454.50 0.075180
455.00 0.075086
455.50 0.075003
456.00 0.074942
456.50 0.074964
457.00 0.074981
457.50 0.075040
458.00 0.074914
458.50 0.074950
459.00 0.074834
459.50 0.074717
460.00 0.074532
460.50 0.074611
461.00 0.074629
461.50 0.074648
462.00 0.074477
462.50 0.074359
463.00 0.074286
463.50 0.074240
464.00 0.074327
464.50 0.074303
465.00 0.074295
465.50 0.074184
466.00 0.074138
466.50 0.074098
467.00 0.074059
467.50 0.074057
468.00 0.073970
468.50 0.074056
469.00 0.073965
469.50 0.073991
470.00 0.073887
470.50 0.073905
471.00 0.073840
471.50 0.073843
472.00 0.073722
472.50 0.073701
473.00 0.073661
473.50 0.073727
474.00 0.073720
474.50 0.073627
475.00 0.073558
475.50 0.073567
476.00 0.073548
476.50 0.073514
477.00 0.073418
477.50 0.073386
478.00 0.073322
478.50 0.073339
479.00 0.073284
479.50 0.073321
480.00 0.073316
480.50 0.073372
481.00 0.073330
481.50 0.073241
482.00 0.073173
482.50 0.073176
483.00 0.073179
483.50 0.073157
484.00 0.073158
484.50 0.073098
485.00 0.073154
485.50 0.073174
486.00 0.073230
486.50 0.073090
487.00 0.072948
487.50 0.072868
488.00 0.072946
488.50 0.072905
489.00 0.072878
489.50 0.072791
490.00 0.072774
490.50 0.072698
491.00 0.072586
491.50 0.072493
492.00 0.072497
492.50 0.072563
493.00 0.072552
493.50 0.072538
494.00 0.072454
494.50 0.072316
495.00 0.072219
495.50 0.072179
496.00 0.072308
496.50 0.072250
497.00 0.072269
497.50 0.072236
498.00 0.072284
498.50 0.072173
499.00 0.072117
499.50 0.072041
500.00 0.071999
500.50 0.071968
501.00 0.071914
501.50 0.071965
502.00 0.071932
502.50 0.072000
503.00 0.071933
503.50 0.071806
504.00 0.071713
504.50 0.071679
505.00 0.071713
505.50 0.071644
506.00 0.071585
506.50 0.071536
507.00 0.071540
507.50 0.071491
508.00 0.071519
508.50 0.071434
509.00 0.071469
509.50 0.071418
510.00 0.071471
510.50 0.071408
511.00 0.071370
511.50 0.071336
512.00 0.071291
512.50 0.071283
513.00 0.071177
513.50 0.071132
514.00 0.071034
514.50 0.071072
515.00 0.071080
515.50 0.071095
516.00 0.071046
516.50 0.070967
517.00 0.070981
517.50 0.070948
518.00 0.070954
518.50 0.070830
519.00 0.070783
519.50 0.070778
520.00 0.070754
520.50 0.070719
521.00 0.070640
521.50 0.070615
522.00 0.070604
522.50 0.070573
523.00 0.070559
523.50 0.070574
524.00 0.070614
524.50 0.070636
525.00 0.070546
525.50 0.070403
526.00 0.070315
526.50 0.070255
527.00 0.070340
527.50 0.070326
528.00 0.070299
528.50 0.070189
529.00 0.070170
529.50 0.070149
530.00 0.070154
530.50 0.070154
531.00 0.070185
531.50 0.070175
532.00 0.070099
532.50 0.070087
533.00 0.070104
533.50 0.070126
534.00 0.070076
534.50 0.069996
535.00 0.069958
535.50 0.070004
536.00 0.070018
536.50 0.069999
537.00 0.069905
537.50 0.069810
538.00 0.069833
538.50 0.069771
539.00 0.069790
539.50 0.069786
540.00 0.069868
540.50 0.069803
541.00 0.069712
541.50 0.069605
542.00 0.069639
542.50 0.069589
543.00 0.069519
543.50 0.069546
544.00 0.069491
544.50 0.069514
545.00 0.069364
545.50 0.069382
546.00 0.069374
546.50 0.069353
547.00 0.069290
547.50 0.069280
548.00 0.069273
548.50 0.069207
549.00 0.069121
549.50 0.069051
550.00 0.069096
550.50 0.069049
551.00 0.069097
551.50 0.069044
552.00 0.069095
552.50 0.069005
553.00 0.069015
553.50 0.068936
554.00 0.068888
554.50 0.068816
555.00 0.068733
555.50 0.068721
556.00 0.068661
556.50 0.068646
557.00 0.068630
557.50 0.068609
558.00 0.068590
558.50 0.068501
559.00 0.068516
559.50 0.068388
560.00 0.068375
560.50 0.068239
561.00 0.068295
561.50 0.068268
562.00 0.068279
562.50 0.068232
563.00 0.068156
563.50 0.068034
564.00 0.067935
564.50 0.067904
565.00 0.067902
565.50 0.067895
566.00 0.067777
566.50 0.067788
567.00 0.067678
567.50 0.067707
568.00 0.067611
568.50 0.067564
569.00 0.067545
569.50 0.067491
570.00 0.067509
570.50 0.067468
571.00 0.067445
571.50 0.067372
572.00 0.067315
572.50 0.067262
573.00 0.067208
573.50 0.067183
574.00 0.067160
574.50 0.067141
575.00 0.067129
575.50 0.067115
576.00 0.067007
576.50 0.066947
577.00 0.066823
577.50 0.066860
578.00 0.066821
578.50 0.066844
579.00 0.066832
579.50 0.066832
580.00 0.066816
580.50 0.066796
581.00 0.066757
581.50 0.066715
582.00 0.066709
582.50 0.066696
583.00 0.066742
583.50 0.066710
584.00 0.066681
584.50 0.066627
585.00 0.066566
585.50 0.066471
586.00 0.066427
586.50 0.066406
587.00 0.066388
587.50 0.066320
588.00 0.066247
588.50 0.066235
589.00 0.066194
589.50 0.066207
590.00 0.066149
590.50 0.066113
591.00 0.066044
591.50 0.066016
592.00 0.065969
592.50 0.065984
593.00 0.065941
593.50 0.065869
594.00 0.065682
594.50 0.065604
595.00 0.065667
595.50 0.065760
596.00 0.065740
596.50 0.065609
597.00 0.065569
597.50 0.065548
598.00 0.065593
598.50 0.065482
599.00 0.065429
599.50 0.065313
600.00 0.065406
600.50 0.065398
601.00 0.065416
601.50 0.065297
602.00 0.065272
602.50 0.065257
603.00 0.065201
603.50 0.065134
604.00 0.064997
604.50 0.064932
605.00 0.064912
605.50 0.064945
606.00 0.064935
606.50 0.064832
607.00 0.064702
607.50 0.064627
608.00 0.064619
608.50 0.064589
609.00 0.064522
609.50 0.064425
610.00 0.064423
610.50 0.064380
611.00 0.064299
611.50 0.064202
612.00 0.064130
612.50 0.064125
613.00 0.064070
613.50 0.064011
614.00 0.063880
614.50 0.063836
615.00 0.063810
615.50 0.063803
616.00 0.063706
616.50 0.063626
617.00 0.063584
617.50 0.063518
618.00 0.063454
618.50 0.063307
619.00 0.063280
619.50 0.063217
620.00 0.063221
620.50 0.063115
621.00 0.062995
621.50 0.062900
622.00 0.062951
622.50 0.062980
623.00 0.062907
623.50 0.062788
624.00 0.062706
624.50 0.062714
625.00 0.062684
625.50 0.062667
626.00 0.062693
626.50 0.062628
627.00 0.062602
627.50 0.062514
628.00 0.062469
628.50 0.062445
629.00 0.062305
629.50 0.062283
630.00 0.062239
630.50 0.062297
631.00 0.062187
631.50 0.062091
632.00 0.062020
632.50 0.062013
633.00 0.062006
633.50 0.061927
634.00 0.061880
634.50 0.061724
635.00 0.061735
635.50 0.061687
636.00 0.061653
636.50 0.061495
637.00 0.061416
637.50 0.061399
638.00 0.061446
638.50 0.061377
639.00 0.061343
639.50 0.061254
640.00 0.061280
640.50 0.061225
641.00 0.061162
641.50 0.061043
642.00 0.060983
642.50 0.060956
643.00 0.060927
643.50 0.060839
644.00 0.060906
644.50 0.060886
645.00 0.060924
645.50 0.060821
646.00 0.060822
646.50 0.060739
647.00 0.060674
647.50 0.060602
648.00 0.060638
648.50 0.060635
649.00 0.060618
649.50 0.060521
650.00 0.060503
650.50 0.060442
651.00 0.060416
651.50 0.060325
652.00 0.060230
652.50 0.060245
653.00 0.060215
653.50 0.060300
654.00 0.060278
654.50 0.060302
655.00 0.060173
655.50 0.060117
656.00 0.059997
656.50 0.060021
657.00 0.059853
657.50 0.059891
658.00 0.059772
658.50 0.059805
659.00 0.059685
659.50 0.059570
660.00 0.059609
660.50 0.059575
661.00 0.059676
661.50 0.059552
662.00 0.059529
662.50 0.059516
663.00 0.059549
663.50 0.059521
664.00 0.059520
664.50 0.059512
665.00 0.059573
665.50 0.059526
666.00 0.059532
666.50 0.059436
667.00 0.059413
667.50 0.059339
668.00 0.059279
668.50 0.059248
669.00 0.059295
669.50 0.059349
670.00 0.059290
670.50 0.059208
671.00 0.059119
671.50 0.059067
672.00 0.059045
672.50 0.059039
673.00 0.059059
673.50 0.059041
674.00 0.058986
674.50 0.058985
675.00 0.058922
675.50 0.058911
676.00 0.058863
676.50 0.058867
677.00 0.058863
677.50 0.058838
678.00 0.058723
678.50 0.058694
679.00 0.058611
679.50 0.058658
680.00 0.058555
680.50 0.058567
681.00 0.058539
681.50 0.058558
682.00 0.058455
682.50 0.058442
683.00 0.058500
683.50 0.058642
684.00 0.058640
684.50 0.058548
685.00 0.058462
685.50 0.058340
686.00 0.058304
686.50 0.058184
687.00 0.058129
687.50 0.058032
688.00 0.058029
688.50 0.058045
689.00 0.058021
689.50 0.058062
690.00 0.058050
690.50 0.058101
691.00 0.058057
691.50 0.058089
692.00 0.058057
692.50 0.058025
693.00 0.057984
693.50 0.058038
694.00 0.058005
694.50 0.058001
695.00 0.057972
695.50 0.058000
696.00 0.057948
696.50 0.057939
697.00 0.057913
697.50 0.057919
698.00 0.057856
698.50 0.057800
699.00 0.057841
699.50 0.057968
700.00 0.058022
700.50 0.057995
701.00 0.057825
701.50 0.057889
702.00 0.057863
702.50 0.057920
703.00 0.057825
703.50 0.057829
704.00 0.057806
704.50 0.057946
705.00 0.058006
705.50 0.058129
706.00 0.058146
706.50 0.058130
707.00 0.058132
707.50 0.058074
708.00 0.058026
708.50 0.057990
709.00 0.057996
709.50 0.058127
710.00 0.058122
710.50 0.058147
711.00 0.058087
711.50 0.058201
712.00 0.058276
712.50 0.058419
713.00 0.058479
713.50 0.058493
714.00 0.058512
714.50 0.058518
715.00 0.058590
715.50 0.058598
716.00 0.058697
716.50 0.058690
717.00 0.058860
717.50 0.058919
718.00 0.059084
718.50 0.059021
719.00 0.059173
719.50 0.059213
720.00 0.059419
720.50 0.059295
721.00 0.059346
721.50 0.059414
722.00 0.059631
722.50 0.059775
723.00 0.059818
723.50 0.059845
724.00 0.059928
724.50 0.060038
725.00 0.060124
725.50 0.060190
726.00 0.060277
726.50 0.060439
727.00 0.060743
727.50 0.060958
728.00 0.061065
728.50 0.061095
729.00 0.061120
729.50 0.061458
730.00 0.061646
730.50 0.061948
731.00 0.062076
731.50 0.062253
732.00 0.062483
732.50 0.062690
733.00 0.063036
733.50 0.063284
734.00 0.063507
734.50 0.063659
735.00 0.063826
735.50 0.063968
736.00 0.064056
736.50 0.064166
737.00 0.064192
737.50 0.064409
738.00 0.064569
738.50 0.064655
739.00 0.064618
739.50 0.064496
740.00 0.064579
740.50 0.064553
741.00 0.064669
741.50 0.064620
742.00 0.064726
742.50 0.064611
743.00 0.064706
743.50 0.064610
744.00 0.064723
744.50 0.064689
745.00 0.064751
745.50 0.064678
746.00 0.064593
746.50 0.064561
747.00 0.064586
747.50 0.064733
748.00 0.064707
748.50 0.064706
749.00 0.064514
749.50 0.064480
750.00 0.064498
750.50 0.064566
751.00 0.064611
751.50 0.064531
752.00 0.064389
752.50 0.064380
753.00 0.064380
753.50 0.064409
754.00 0.064243
754.50 0.064190
755.00 0.064272
755.50 0.064220
756.00 0.064190
756.50 0.064135
757.00 0.064259
757.50 0.064349
758.00 0.064305
758.50 0.064185
759.00 0.064063
759.50 0.064049
760.00 0.064034
760.50 0.064058
761.00 0.063971
761.50 0.063982
762.00 0.063918
762.50 0.063953
763.00 0.063850
763.50 0.063740
764.00 0.063658
764.50 0.063790
765.00 0.063692
765.50 0.063703
766.00 0.063581
766.50 0.063598
767.00 0.063495
767.50 0.063453
768.00 0.063346
768.50 0.063186
769.00 0.063052
769.50 0.062952
770.00 0.062986
770.50 0.062954
771.00 0.062993
771.50 0.062970
772.00 0.063010
772.50 0.062945
773.00 0.062792
773.50 0.062619
774.00 0.062592
774.50 0.062738
775.00 0.062671
775.50 0.062552
776.00 0.062372
776.50 0.062389
777.00 0.062374
777.50 0.062345
778.00 0.062407
778.50 0.062530
779.00 0.062538
779.50 0.062448
780.00 0.062341
780.50 0.062335
781.00 0.062307
781.50 0.062332
782.00 0.062317
782.50 0.062259
783.00 0.062213
783.50 0.062143
784.00 0.062022
784.50 0.062032
785.00 0.062078
785.50 0.062085
786.00 0.061976
786.50 0.061694
787.00 0.061643
787.50 0.061430
788.00 0.061505
788.50 0.061415
789.00 0.061331
789.50 0.061312
790.00 0.061211
790.50 0.061153
791.00 0.060881
791.50 0.060734
792.00 0.060701
792.50 0.060763
793.00 0.060815
793.50 0.060778
794.00 0.060666
794.50 0.060497
795.00 0.060458
795.50 0.060380
796.00 0.060372
796.50 0.060187
797.00 0.060104
797.50 0.060095
798.00 0.060115
798.50 0.060065
799.00 0.059944
799.50 0.059746
800.00 0.059585