File: data/14_05/File_250514_173505.txt
'File_250514_173505 - Storage 173505'
'Wavelength nm.' 'Abs.'
350.00 0.188979
350.50 0.188812
351.00 0.188525
351.50 0.188321
352.00 0.188070
352.50 0.188060
353.00 0.187747
353.50 0.187605
354.00 0.187243
354.50 0.187129
355.00 0.186885
355.50 0.186751
356.00 0.186482
356.50 0.186250
357.00 0.185922
357.50 0.185641
358.00 0.185408
358.50 0.185082
359.00 0.184899
359.50 0.184564
360.00 0.184300
360.50 0.183927
361.00 0.183677
361.50 0.183468
362.00 0.183282
362.50 0.183146
363.00 0.182984
363.50 0.182757
364.00 0.182472
364.50 0.182102
365.00 0.181954
365.50 0.181786
366.00 0.181715
366.50 0.181428
367.00 0.181195
367.50 0.180933
368.00 0.180734
368.50 0.180414
369.00 0.180207
369.50 0.179970
370.00 0.179927
370.50 0.179704
371.00 0.179451
371.50 0.179236
372.00 0.179065
372.50 0.178882
373.00 0.178451
373.50 0.178168
374.00 0.177925
374.50 0.177820
375.00 0.177591
375.50 0.177470
376.00 0.177318
376.50 0.177196
377.00 0.176948
377.50 0.176802
378.00 0.176585
378.50 0.176495
379.00 0.176292
379.50 0.176082
380.00 0.175850
380.50 0.175668
381.00 0.175491
381.50 0.175226
382.00 0.174969
382.50 0.174880
383.00 0.174753
383.50 0.174602
384.00 0.174383
384.50 0.174237
385.00 0.174007
385.50 0.173761
386.00 0.173502
386.50 0.173347
387.00 0.173171
387.50 0.172953
388.00 0.172778
388.50 0.172598
389.00 0.172490
389.50 0.172270
390.00 0.172099
390.50 0.171890
391.00 0.171644
391.50 0.171367
392.00 0.171164
392.50 0.170992
393.00 0.170801
393.50 0.170507
394.00 0.170344
394.50 0.170141
395.00 0.170064
395.50 0.169842
396.00 0.169728
396.50 0.169453
397.00 0.169241
397.50 0.169033
398.00 0.168930
398.50 0.168830
399.00 0.168642
399.50 0.168448
400.00 0.168283
400.50 0.168230
401.00 0.168065
401.50 0.167874
402.00 0.167666
402.50 0.167438
403.00 0.167324
403.50 0.167011
404.00 0.166776
404.50 0.166465
405.00 0.166388
405.50 0.166259
406.00 0.166133
406.50 0.165971
407.00 0.165893
407.50 0.165819
408.00 0.165725
408.50 0.165676
409.00 0.165654
409.50 0.165604
410.00 0.165488
410.50 0.165317
411.00 0.165173
411.50 0.165070
412.00 0.164993
412.50 0.164927
413.00 0.164836
413.50 0.164823
414.00 0.164779
414.50 0.164724
415.00 0.164575
415.50 0.164520
416.00 0.164486
416.50 0.164528
417.00 0.164460
417.50 0.164410
418.00 0.164336
418.50 0.164289
419.00 0.164323
419.50 0.164261
420.00 0.164225
420.50 0.164178
421.00 0.164086
421.50 0.164079
422.00 0.163988
422.50 0.163963
423.00 0.163850
423.50 0.163846
424.00 0.163814
424.50 0.163875
425.00 0.163845
425.50 0.163920
426.00 0.163950
426.50 0.163987
427.00 0.163999
427.50 0.163965
428.00 0.163975
428.50 0.163979
429.00 0.163981
429.50 0.164001
430.00 0.164046
430.50 0.164113
431.00 0.164200
431.50 0.164318
432.00 0.164341
432.50 0.164235
433.00 0.164168
433.50 0.164219
434.00 0.164346
434.50 0.164478
435.00 0.164540
435.50 0.164643
436.00 0.164698
436.50 0.164828
437.00 0.164849
437.50 0.164858
438.00 0.164832
438.50 0.164949
439.00 0.165013
439.50 0.165126
440.00 0.165244
440.50 0.165365
441.00 0.165535
441.50 0.165537
442.00 0.165669
442.50 0.165685
443.00 0.165718
443.50 0.165698
444.00 0.165725
444.50 0.165900
445.00 0.165997
445.50 0.166214
446.00 0.166277
446.50 0.166469
447.00 0.166481
447.50 0.166632
448.00 0.166734
448.50 0.166897
449.00 0.166968
449.50 0.167014
450.00 0.167021
450.50 0.167066
451.00 0.167154
451.50 0.167293
452.00 0.167547
452.50 0.167711
453.00 0.167898
453.50 0.167965
454.00 0.168029
454.50 0.168068
455.00 0.168170
455.50 0.168282
456.00 0.168453
456.50 0.168568
457.00 0.168730
457.50 0.168926
458.00 0.169067
458.50 0.169234
459.00 0.169249
459.50 0.169309
460.00 0.169331
460.50 0.169548
461.00 0.169695
461.50 0.169915
462.00 0.170004
462.50 0.170135
463.00 0.170280
463.50 0.170410
464.00 0.170601
464.50 0.170724
465.00 0.170848
465.50 0.170955
466.00 0.171097
466.50 0.171202
467.00 0.171295
467.50 0.171366
468.00 0.171477
468.50 0.171672
469.00 0.171765
469.50 0.171912
470.00 0.172015
470.50 0.172183
471.00 0.172262
471.50 0.172316
472.00 0.172369
472.50 0.172487
473.00 0.172612
473.50 0.172764
474.00 0.172888
474.50 0.173011
475.00 0.173102
475.50 0.173189
476.00 0.173263
476.50 0.173331
477.00 0.173433
477.50 0.173512
478.00 0.173637
478.50 0.173728
479.00 0.173864
479.50 0.174030
480.00 0.174230
480.50 0.174429
481.00 0.174485
481.50 0.174533
482.00 0.174523
482.50 0.174704
483.00 0.174794
483.50 0.174961
484.00 0.175065
484.50 0.175166
485.00 0.175280
485.50 0.175343
486.00 0.175468
486.50 0.175475
487.00 0.175460
487.50 0.175486
488.00 0.175634
488.50 0.175691
489.00 0.175736
489.50 0.175707
490.00 0.175795
490.50 0.175867
491.00 0.175864
491.50 0.175957
492.00 0.176055
492.50 0.176207
493.00 0.176216
493.50 0.176188
494.00 0.176202
494.50 0.176226
495.00 0.176258
495.50 0.176235
496.00 0.176336
496.50 0.176395
497.00 0.176478
497.50 0.176493
498.00 0.176513
498.50 0.176456
499.00 0.176451
499.50 0.176465
500.00 0.176530
500.50 0.176580
501.00 0.176581
501.50 0.176646
502.00 0.176616
502.50 0.176649
503.00 0.176622
503.50 0.176529
504.00 0.176422
504.50 0.176409
505.00 0.176507
505.50 0.176564
506.00 0.176530
506.50 0.176509
507.00 0.176552
507.50 0.176554
508.00 0.176575
508.50 0.176482
509.00 0.176572
509.50 0.176518
510.00 0.176599
510.50 0.176514
511.00 0.176466
511.50 0.176459
512.00 0.176392
512.50 0.176423
513.00 0.176250
513.50 0.176226
514.00 0.176152
514.50 0.176253
515.00 0.176286
515.50 0.176274
516.00 0.176189
516.50 0.176072
517.00 0.176045
517.50 0.176018
518.00 0.175931
518.50 0.175790
519.00 0.175713
519.50 0.175766
520.00 0.175736
520.50 0.175663
521.00 0.175542
521.50 0.175482
522.00 0.175381
522.50 0.175264
523.00 0.175215
523.50 0.175227
524.00 0.175255
524.50 0.175163
525.00 0.174949
525.50 0.174761
526.00 0.174613
526.50 0.174602
527.00 0.174593
527.50 0.174542
528.00 0.174429
528.50 0.174251
529.00 0.174223
529.50 0.174132
530.00 0.173941
530.50 0.173728
531.00 0.173527
531.50 0.173428
532.00 0.173260
532.50 0.173156
533.00 0.173039
533.50 0.172880
534.00 0.172674
534.50 0.172493
535.00 0.172369
535.50 0.172287
536.00 0.172225
536.50 0.172083
537.00 0.171997
537.50 0.171699
538.00 0.171525
538.50 0.171258
539.00 0.171197
539.50 0.171094
540.00 0.171012
540.50 0.170837
541.00 0.170597
541.50 0.170363
542.00 0.170211
542.50 0.170138
543.00 0.169963
543.50 0.169861
544.00 0.169578
544.50 0.169435
545.00 0.169220
545.50 0.169147
546.00 0.168963
546.50 0.168771
547.00 0.168555
547.50 0.168402
548.00 0.168263
548.50 0.168073
549.00 0.167861
549.50 0.167623
550.00 0.167451
550.50 0.167249
551.00 0.167066
551.50 0.166874
552.00 0.166713
552.50 0.166531
553.00 0.166441
553.50 0.166269
554.00 0.166126
554.50 0.165906
555.00 0.165655
555.50 0.165411
556.00 0.165201
556.50 0.165003
557.00 0.164751
557.50 0.164522
558.00 0.164302
558.50 0.164151
559.00 0.163971
559.50 0.163751
560.00 0.163533
560.50 0.163239
561.00 0.163073
561.50 0.162858
562.00 0.162653
562.50 0.162464
563.00 0.162225
563.50 0.161938
564.00 0.161585
564.50 0.161327
565.00 0.161094
565.50 0.160891
566.00 0.160527
566.50 0.160251
567.00 0.159979
567.50 0.159785
568.00 0.159606
568.50 0.159401
569.00 0.159239
569.50 0.158988
570.00 0.158789
570.50 0.158561
571.00 0.158307
571.50 0.157955
572.00 0.157695
572.50 0.157442
573.00 0.157264
573.50 0.157060
574.00 0.156900
574.50 0.156717
575.00 0.156502
575.50 0.156234
576.00 0.155970
576.50 0.155778
577.00 0.155489
577.50 0.155280
578.00 0.155005
578.50 0.154808
579.00 0.154585
579.50 0.154394
580.00 0.154247
580.50 0.154042
581.00 0.153770
581.50 0.153480
582.00 0.153268
582.50 0.153070
583.00 0.152924
583.50 0.152601
584.00 0.152334
584.50 0.152031
585.00 0.151816
585.50 0.151547
586.00 0.151238
586.50 0.150974
587.00 0.150700
587.50 0.150428
588.00 0.150103
588.50 0.149845
589.00 0.149546
589.50 0.149337
590.00 0.149026
590.50 0.148794
591.00 0.148458
591.50 0.148249
592.00 0.148050
592.50 0.147878
593.00 0.147644
593.50 0.147320
594.00 0.147020
594.50 0.146745
595.00 0.146566
595.50 0.146356
596.00 0.146069
596.50 0.145785
597.00 0.145526
597.50 0.145262
598.00 0.145025
598.50 0.144711
599.00 0.144427
599.50 0.144130
600.00 0.143973
600.50 0.143731
601.00 0.143493
601.50 0.143204
602.00 0.142935
602.50 0.142657
603.00 0.142383
603.50 0.142090
604.00 0.141724
604.50 0.141397
605.00 0.141176
605.50 0.141024
606.00 0.140770
606.50 0.140459
607.00 0.140106
607.50 0.139854
608.00 0.139614
608.50 0.139306
609.00 0.138984
609.50 0.138671
610.00 0.138429
610.50 0.138118
611.00 0.137862
611.50 0.137587
612.00 0.137344
612.50 0.137028
613.00 0.136698
613.50 0.136384
614.00 0.136013
614.50 0.135739
615.00 0.135381
615.50 0.135086
616.00 0.134704
616.50 0.134452
617.00 0.134255
617.50 0.134049
618.00 0.133751
618.50 0.133411
619.00 0.133120
619.50 0.132797
620.00 0.132505
620.50 0.132221
621.00 0.131993
621.50 0.131717
622.00 0.131525
622.50 0.131260
623.00 0.131009
623.50 0.130674
624.00 0.130396
624.50 0.130185
625.00 0.129929
625.50 0.129729
626.00 0.129537
626.50 0.129231
627.00 0.128905
627.50 0.128553
628.00 0.128377
628.50 0.128131
629.00 0.127771
629.50 0.127485
630.00 0.127198
630.50 0.127044
631.00 0.126701
631.50 0.126443
632.00 0.126164
632.50 0.125918
633.00 0.125666
633.50 0.125264
634.00 0.124950
634.50 0.124627
635.00 0.124448
635.50 0.124252
636.00 0.124058
636.50 0.123725
637.00 0.123426
637.50 0.123075
638.00 0.122930
638.50 0.122624
639.00 0.122382
639.50 0.122005
640.00 0.121807
640.50 0.121555
641.00 0.121301
641.50 0.120977
642.00 0.120666
642.50 0.120367
643.00 0.120105
643.50 0.119806
644.00 0.119606
644.50 0.119374
645.00 0.119226
645.50 0.119007
646.00 0.118796
646.50 0.118512
647.00 0.118240
647.50 0.117977
648.00 0.117835
648.50 0.117613
649.00 0.117399
649.50 0.117073
650.00 0.116864
650.50 0.116581
651.00 0.116375
651.50 0.116112
652.00 0.115822
652.50 0.115593
653.00 0.115362
653.50 0.115207
654.00 0.114936
654.50 0.114715
655.00 0.114453
655.50 0.114267
656.00 0.113994
656.50 0.113820
657.00 0.113398
657.50 0.113118
658.00 0.112807
658.50 0.112687
659.00 0.112466
659.50 0.112148
660.00 0.111979
660.50 0.111772
661.00 0.111600
661.50 0.111314
662.00 0.111079
662.50 0.110973
663.00 0.110863
663.50 0.110722
664.00 0.110538
664.50 0.110327
665.00 0.110177
665.50 0.109964
666.00 0.109716
666.50 0.109421
667.00 0.109186
667.50 0.108916
668.00 0.108671
668.50 0.108422
669.00 0.108343
669.50 0.108256
670.00 0.108057
670.50 0.107754
671.00 0.107496
671.50 0.107288
672.00 0.107093
672.50 0.106908
673.00 0.106743
673.50 0.106596
674.00 0.106372
674.50 0.106165
675.00 0.105960
675.50 0.105772
676.00 0.105586
676.50 0.105406
677.00 0.105255
677.50 0.105046
678.00 0.104748
678.50 0.104405
679.00 0.104159
679.50 0.104030
680.00 0.103903
680.50 0.103716
681.00 0.103505
681.50 0.103333
682.00 0.103066
682.50 0.102870
683.00 0.102629
683.50 0.102516
684.00 0.102350
684.50 0.102177
685.00 0.102041
685.50 0.101838
686.00 0.101720
686.50 0.101425
687.00 0.101222
687.50 0.100997
688.00 0.100880
688.50 0.100711
689.00 0.100512
689.50 0.100337
690.00 0.100167
690.50 0.099987
691.00 0.099778
691.50 0.099561
692.00 0.099372
692.50 0.099216
693.00 0.099067
693.50 0.098966
694.00 0.098827
694.50 0.098719
695.00 0.098663
695.50 0.098489
696.00 0.098246
696.50 0.097957
697.00 0.097754
697.50 0.097604
698.00 0.097514
698.50 0.097402
699.00 0.097294
699.50 0.097139
700.00 0.097070
700.50 0.097030
701.00 0.096749
701.50 0.096642
702.00 0.096407
702.50 0.096370
703.00 0.096129
703.50 0.096060
704.00 0.095972
704.50 0.095861
705.00 0.095658
705.50 0.095629
706.00 0.095615
706.50 0.095524
707.00 0.095327
707.50 0.095180
708.00 0.095117
708.50 0.095004
709.00 0.094818
709.50 0.094752
710.00 0.094631
710.50 0.094600
711.00 0.094451
711.50 0.094386
712.00 0.094354
712.50 0.094234
713.00 0.094096
713.50 0.093961
714.00 0.093907
714.50 0.093813
715.00 0.093793
715.50 0.093748
716.00 0.093823
716.50 0.093680
717.00 0.093732
717.50 0.093606
718.00 0.093727
718.50 0.093632
719.00 0.093709
719.50 0.093608
720.00 0.093510
720.50 0.093276
721.00 0.093239
721.50 0.093178
722.00 0.093154
722.50 0.093167
723.00 0.093194
723.50 0.093252
724.00 0.093187
724.50 0.093126
725.00 0.093095
725.50 0.093109
726.00 0.093151
726.50 0.093234
727.00 0.093264
727.50 0.093350
728.00 0.093317
728.50 0.093294
729.00 0.093268
729.50 0.093476
730.00 0.093705
730.50 0.093850
731.00 0.093919
731.50 0.093908
732.00 0.094066
732.50 0.094182
733.00 0.094383
733.50 0.094542
734.00 0.094646
734.50 0.094797
735.00 0.094863
735.50 0.094894
736.00 0.094850
736.50 0.094885
737.00 0.094805
737.50 0.094951
738.00 0.094958
738.50 0.095043
739.00 0.094851
739.50 0.094741
740.00 0.094757
740.50 0.094696
741.00 0.094576
741.50 0.094447
742.00 0.094381
742.50 0.094226
743.00 0.094116
743.50 0.093887
744.00 0.093848
744.50 0.093760
745.00 0.093767
745.50 0.093685
746.00 0.093538
746.50 0.093451
747.00 0.093439
747.50 0.093317
748.00 0.093106
748.50 0.093098
749.00 0.092888
749.50 0.092914
750.00 0.092744
750.50 0.092776
751.00 0.092622
751.50 0.092450
752.00 0.092301
752.50 0.092270
753.00 0.092057
753.50 0.091986
754.00 0.091930
754.50 0.091901
755.00 0.091855
755.50 0.091612
756.00 0.091519
756.50 0.091421
757.00 0.091307
757.50 0.091229
758.00 0.091103
758.50 0.090995
759.00 0.090856
759.50 0.090778
760.00 0.090684
760.50 0.090640
761.00 0.090455
761.50 0.090481
762.00 0.090359
762.50 0.090389
763.00 0.090292
763.50 0.090006
764.00 0.089745
764.50 0.089681
765.00 0.089700
765.50 0.089546
766.00 0.089227
766.50 0.089088
767.00 0.089104
767.50 0.089094
768.00 0.088962
768.50 0.088642
769.00 0.088436
769.50 0.088340
770.00 0.088281
770.50 0.088130
771.00 0.087798
771.50 0.087728
772.00 0.087721
772.50 0.087702
773.00 0.087560
773.50 0.087361
774.00 0.087251
774.50 0.087225
775.00 0.087041
775.50 0.087024
776.00 0.086840
776.50 0.086838
777.00 0.086819
777.50 0.086797
778.00 0.086657
778.50 0.086682
779.00 0.086577
779.50 0.086670
780.00 0.086458
780.50 0.086318
781.00 0.086135
781.50 0.086112
782.00 0.086038
782.50 0.085961
783.00 0.085885
783.50 0.085779
784.00 0.085667
784.50 0.085481
785.00 0.085430
785.50 0.085227
786.00 0.085131
786.50 0.084964
787.00 0.084939
787.50 0.084522
788.00 0.084316
788.50 0.084048
789.00 0.084065
789.50 0.084009
790.00 0.083794
790.50 0.083556
791.00 0.083288
791.50 0.083251
792.00 0.083258
792.50 0.083258
793.00 0.083080
793.50 0.083039
794.00 0.082819
794.50 0.082784
795.00 0.082516
795.50 0.082367
796.00 0.082125
796.50 0.081981
797.00 0.081837
797.50 0.081811
798.00 0.081793
798.50 0.081654
799.00 0.081465
799.50 0.081401
800.00 0.081537