File: data/14_05/File_250514_175838.txt
'File_250514_175838 - Storage 175838'
'Wavelength nm.' 'Abs.'
350.00 0.181162
350.50 0.180822
351.00 0.180258
351.50 0.179930
352.00 0.179455
352.50 0.179100
353.00 0.178364
353.50 0.177762
354.00 0.177149
354.50 0.176778
355.00 0.176283
355.50 0.175685
356.00 0.175057
356.50 0.174433
357.00 0.173857
357.50 0.173386
358.00 0.172892
358.50 0.172368
359.00 0.171686
359.50 0.171077
360.00 0.170617
360.50 0.170040
361.00 0.169564
361.50 0.169045
362.00 0.168654
362.50 0.168220
363.00 0.167888
363.50 0.167381
364.00 0.166887
364.50 0.166248
365.00 0.165909
365.50 0.165574
366.00 0.165185
366.50 0.164628
367.00 0.164121
367.50 0.163723
368.00 0.163309
368.50 0.162877
369.00 0.162366
369.50 0.161901
370.00 0.161520
370.50 0.161104
371.00 0.160758
371.50 0.160308
372.00 0.159922
372.50 0.159373
373.00 0.158814
373.50 0.158293
374.00 0.157824
374.50 0.157499
375.00 0.157062
375.50 0.156721
376.00 0.156287
376.50 0.155874
377.00 0.155446
377.50 0.155091
378.00 0.154756
378.50 0.154419
379.00 0.153962
379.50 0.153477
380.00 0.153067
380.50 0.152715
381.00 0.152364
381.50 0.151994
382.00 0.151503
382.50 0.151110
383.00 0.150822
383.50 0.150575
384.00 0.150309
384.50 0.149870
385.00 0.149563
385.50 0.149180
386.00 0.148895
386.50 0.148490
387.00 0.148181
387.50 0.147819
388.00 0.147556
388.50 0.147285
389.00 0.147056
389.50 0.146673
390.00 0.146276
390.50 0.145966
391.00 0.145628
391.50 0.145361
392.00 0.145008
392.50 0.144770
393.00 0.144465
393.50 0.144186
394.00 0.143971
394.50 0.143657
395.00 0.143307
395.50 0.143017
396.00 0.142846
396.50 0.142706
397.00 0.142395
397.50 0.142233
398.00 0.142015
398.50 0.141843
399.00 0.141513
399.50 0.141208
400.00 0.141033
400.50 0.140921
401.00 0.140736
401.50 0.140496
402.00 0.140346
402.50 0.140169
403.00 0.139966
403.50 0.139494
404.00 0.139214
404.50 0.138942
405.00 0.138796
405.50 0.138601
406.00 0.138447
406.50 0.138286
407.00 0.138061
407.50 0.137867
408.00 0.137651
408.50 0.137529
409.00 0.137387
409.50 0.137318
410.00 0.137140
410.50 0.136931
411.00 0.136738
411.50 0.136662
412.00 0.136611
412.50 0.136502
413.00 0.136460
413.50 0.136383
414.00 0.136375
414.50 0.136193
415.00 0.136043
415.50 0.135898
416.00 0.135684
416.50 0.135492
417.00 0.135307
417.50 0.135246
418.00 0.135181
418.50 0.135046
419.00 0.134930
419.50 0.134777
420.00 0.134627
420.50 0.134495
421.00 0.134224
421.50 0.134068
422.00 0.133891
422.50 0.133853
423.00 0.133712
423.50 0.133577
424.00 0.133456
424.50 0.133358
425.00 0.133269
425.50 0.133159
426.00 0.132992
426.50 0.132793
427.00 0.132659
427.50 0.132461
428.00 0.132341
428.50 0.132221
429.00 0.132196
429.50 0.132094
430.00 0.131913
430.50 0.131738
431.00 0.131643
431.50 0.131594
432.00 0.131460
432.50 0.131268
433.00 0.131123
433.50 0.130997
434.00 0.130970
434.50 0.130830
435.00 0.130784
435.50 0.130587
436.00 0.130466
436.50 0.130361
437.00 0.130284
437.50 0.130136
438.00 0.129978
438.50 0.129825
439.00 0.129697
439.50 0.129653
440.00 0.129569
440.50 0.129582
441.00 0.129395
441.50 0.129205
442.00 0.128989
442.50 0.128878
443.00 0.128791
443.50 0.128682
444.00 0.128570
444.50 0.128521
445.00 0.128427
445.50 0.128409
446.00 0.128322
446.50 0.128275
447.00 0.128162
447.50 0.128085
448.00 0.127959
448.50 0.127818
449.00 0.127738
449.50 0.127595
450.00 0.127479
450.50 0.127292
451.00 0.127222
451.50 0.127185
452.00 0.127139
452.50 0.127042
453.00 0.126912
453.50 0.126802
454.00 0.126758
454.50 0.126714
455.00 0.126691
455.50 0.126516
456.00 0.126369
456.50 0.126257
457.00 0.126206
457.50 0.126153
458.00 0.126013
458.50 0.126007
459.00 0.125871
459.50 0.125720
460.00 0.125479
460.50 0.125419
461.00 0.125369
461.50 0.125398
462.00 0.125288
462.50 0.125143
463.00 0.124969
463.50 0.124845
464.00 0.124813
464.50 0.124710
465.00 0.124603
465.50 0.124473
466.00 0.124412
466.50 0.124311
467.00 0.124207
467.50 0.124062
468.00 0.123955
468.50 0.123851
469.00 0.123685
469.50 0.123501
470.00 0.123299
470.50 0.123194
471.00 0.123059
471.50 0.122954
472.00 0.122810
472.50 0.122749
473.00 0.122600
473.50 0.122519
474.00 0.122350
474.50 0.122242
475.00 0.122021
475.50 0.121858
476.00 0.121743
476.50 0.121611
477.00 0.121487
477.50 0.121347
478.00 0.121292
478.50 0.121264
479.00 0.121261
479.50 0.121190
480.00 0.121126
480.50 0.121030
481.00 0.120968
481.50 0.120869
482.00 0.120776
482.50 0.120743
483.00 0.120705
483.50 0.120689
484.00 0.120577
484.50 0.120472
485.00 0.120284
485.50 0.120200
486.00 0.120110
486.50 0.119932
487.00 0.119696
487.50 0.119477
488.00 0.119397
488.50 0.119247
489.00 0.119171
489.50 0.118965
490.00 0.118787
490.50 0.118528
491.00 0.118340
491.50 0.118175
492.00 0.118042
492.50 0.117921
493.00 0.117794
493.50 0.117696
494.00 0.117586
494.50 0.117429
495.00 0.117154
495.50 0.116909
496.00 0.116785
496.50 0.116700
497.00 0.116656
497.50 0.116502
498.00 0.116343
498.50 0.116112
499.00 0.115924
499.50 0.115749
500.00 0.115664
500.50 0.115606
501.00 0.115469
501.50 0.115332
502.00 0.115075
502.50 0.114999
503.00 0.114785
503.50 0.114642
504.00 0.114424
504.50 0.114313
505.00 0.114233
505.50 0.114078
506.00 0.113883
506.50 0.113742
507.00 0.113603
507.50 0.113431
508.00 0.113317
508.50 0.113153
509.00 0.113052
509.50 0.112804
510.00 0.112720
510.50 0.112614
511.00 0.112519
511.50 0.112371
512.00 0.112162
512.50 0.112022
513.00 0.111815
513.50 0.111681
514.00 0.111471
514.50 0.111356
515.00 0.111225
515.50 0.111084
516.00 0.110872
516.50 0.110735
517.00 0.110600
517.50 0.110520
518.00 0.110350
518.50 0.110131
519.00 0.109920
519.50 0.109768
520.00 0.109677
520.50 0.109556
521.00 0.109403
521.50 0.109225
522.00 0.109056
522.50 0.108906
523.00 0.108764
523.50 0.108605
524.00 0.108440
524.50 0.108300
525.00 0.108081
525.50 0.107864
526.00 0.107635
526.50 0.107518
527.00 0.107435
527.50 0.107303
528.00 0.107190
528.50 0.107028
529.00 0.106962
529.50 0.106755
530.00 0.106489
530.50 0.106330
531.00 0.106184
531.50 0.106067
532.00 0.105779
532.50 0.105666
533.00 0.105532
533.50 0.105331
534.00 0.105062
534.50 0.104823
535.00 0.104755
535.50 0.104611
536.00 0.104535
536.50 0.104337
537.00 0.104188
537.50 0.103925
538.00 0.103757
538.50 0.103539
539.00 0.103423
539.50 0.103356
540.00 0.103267
540.50 0.103098
541.00 0.102733
541.50 0.102524
542.00 0.102314
542.50 0.102306
543.00 0.102120
543.50 0.102079
544.00 0.101848
544.50 0.101714
545.00 0.101562
545.50 0.101410
546.00 0.101252
546.50 0.100984
547.00 0.100843
547.50 0.100748
548.00 0.100634
548.50 0.100462
549.00 0.100240
549.50 0.100024
550.00 0.099867
550.50 0.099641
551.00 0.099447
551.50 0.099214
552.00 0.099109
552.50 0.099015
553.00 0.098948
553.50 0.098833
554.00 0.098697
554.50 0.098555
555.00 0.098327
555.50 0.098017
556.00 0.097779
556.50 0.097605
557.00 0.097530
557.50 0.097482
558.00 0.097311
558.50 0.097135
559.00 0.096947
559.50 0.096817
560.00 0.096665
560.50 0.096408
561.00 0.096218
561.50 0.096052
562.00 0.095873
562.50 0.095769
563.00 0.095542
563.50 0.095364
564.00 0.095053
564.50 0.094893
565.00 0.094664
565.50 0.094505
566.00 0.094187
566.50 0.093961
567.00 0.093663
567.50 0.093514
568.00 0.093323
568.50 0.093116
569.00 0.092970
569.50 0.092775
570.00 0.092641
570.50 0.092451
571.00 0.092256
571.50 0.092059
572.00 0.091811
572.50 0.091624
573.00 0.091470
573.50 0.091348
574.00 0.091215
574.50 0.091101
575.00 0.090970
575.50 0.090757
576.00 0.090576
576.50 0.090439
577.00 0.090346
577.50 0.090194
578.00 0.090033
578.50 0.089978
579.00 0.089921
579.50 0.089876
580.00 0.089753
580.50 0.089641
581.00 0.089530
581.50 0.089501
582.00 0.089460
582.50 0.089445
583.00 0.089339
583.50 0.089211
584.00 0.089032
584.50 0.088914
585.00 0.088719
585.50 0.088524
586.00 0.088292
586.50 0.088163
587.00 0.087997
587.50 0.087791
588.00 0.087577
588.50 0.087389
589.00 0.087182
589.50 0.086972
590.00 0.086740
590.50 0.086541
591.00 0.086334
591.50 0.086169
592.00 0.086000
592.50 0.085883
593.00 0.085750
593.50 0.085579
594.00 0.085315
594.50 0.085063
595.00 0.084914
595.50 0.084832
596.00 0.084652
596.50 0.084461
597.00 0.084244
597.50 0.084138
598.00 0.084036
598.50 0.083922
599.00 0.083710
599.50 0.083501
600.00 0.083399
600.50 0.083310
601.00 0.083144
601.50 0.082877
602.00 0.082686
602.50 0.082529
603.00 0.082453
603.50 0.082329
604.00 0.082182
604.50 0.081924
605.00 0.081710
605.50 0.081592
606.00 0.081479
606.50 0.081334
607.00 0.081119
607.50 0.080966
608.00 0.080889
608.50 0.080777
609.00 0.080574
609.50 0.080361
610.00 0.080177
610.50 0.080092
611.00 0.079979
611.50 0.079858
612.00 0.079683
612.50 0.079494
613.00 0.079353
613.50 0.079196
614.00 0.079072
614.50 0.078902
615.00 0.078808
615.50 0.078610
616.00 0.078401
616.50 0.078248
617.00 0.078156
617.50 0.078097
618.00 0.077986
618.50 0.077816
619.00 0.077720
619.50 0.077518
620.00 0.077392
620.50 0.077195
621.00 0.077046
621.50 0.076877
622.00 0.076824
622.50 0.076786
623.00 0.076644
623.50 0.076453
624.00 0.076282
624.50 0.076271
625.00 0.076171
625.50 0.076111
626.00 0.076024
626.50 0.075882
627.00 0.075720
627.50 0.075588
628.00 0.075519
628.50 0.075430
629.00 0.075215
629.50 0.075042
630.00 0.074871
630.50 0.074818
631.00 0.074716
631.50 0.074569
632.00 0.074450
632.50 0.074348
633.00 0.074265
633.50 0.074065
634.00 0.073970
634.50 0.073850
635.00 0.073873
635.50 0.073778
636.00 0.073653
636.50 0.073444
637.00 0.073286
637.50 0.073207
638.00 0.073173
638.50 0.073055
639.00 0.072887
639.50 0.072782
640.00 0.072744
640.50 0.072713
641.00 0.072547
641.50 0.072319
642.00 0.072229
642.50 0.072124
643.00 0.072054
643.50 0.071908
644.00 0.071901
644.50 0.071797
645.00 0.071756
645.50 0.071591
646.00 0.071623
646.50 0.071509
647.00 0.071414
647.50 0.071291
648.00 0.071245
648.50 0.071130
649.00 0.071084
649.50 0.070967
650.00 0.070906
650.50 0.070774
651.00 0.070726
651.50 0.070668
652.00 0.070585
652.50 0.070478
653.00 0.070507
653.50 0.070438
654.00 0.070410
654.50 0.070299
655.00 0.070254
655.50 0.070187
656.00 0.070132
656.50 0.070036
657.00 0.069892
657.50 0.069745
658.00 0.069594
658.50 0.069525
659.00 0.069403
659.50 0.069257
660.00 0.069151
660.50 0.069114
661.00 0.069036
661.50 0.069046
662.00 0.068997
662.50 0.069023
663.00 0.068941
663.50 0.068844
664.00 0.068858
664.50 0.068804
665.00 0.068858
665.50 0.068835
666.00 0.068856
666.50 0.068799
667.00 0.068843
667.50 0.068829
668.00 0.068824
668.50 0.068792
669.00 0.068745
669.50 0.068761
670.00 0.068724
670.50 0.068682
671.00 0.068639
671.50 0.068491
672.00 0.068482
672.50 0.068379
673.00 0.068377
673.50 0.068277
674.00 0.068190
674.50 0.068196
675.00 0.068160
675.50 0.068139
676.00 0.068073
676.50 0.068104
677.00 0.068066
677.50 0.068031
678.00 0.067937
678.50 0.067819
679.00 0.067711
679.50 0.067704
680.00 0.067715
680.50 0.067668
681.00 0.067567
681.50 0.067500
682.00 0.067444
682.50 0.067453
683.00 0.067537
683.50 0.067616
684.00 0.067597
684.50 0.067485
685.00 0.067363
685.50 0.067235
686.00 0.067112
686.50 0.066981
687.00 0.066957
687.50 0.066968
688.00 0.067073
688.50 0.067011
689.00 0.066982
689.50 0.066915
690.00 0.066856
690.50 0.066814
691.00 0.066765
691.50 0.066783
692.00 0.066737
692.50 0.066714
693.00 0.066639
693.50 0.066627
694.00 0.066510
694.50 0.066584
695.00 0.066631
695.50 0.066606
696.00 0.066517
696.50 0.066464
697.00 0.066524
697.50 0.066540
698.00 0.066521
698.50 0.066479
699.00 0.066508
699.50 0.066577
700.00 0.066599
700.50 0.066593
701.00 0.066548
701.50 0.066609
702.00 0.066565
702.50 0.066534
703.00 0.066528
703.50 0.066653
704.00 0.066689
704.50 0.066797
705.00 0.066692
705.50 0.066762
706.00 0.066754
706.50 0.066716
707.00 0.066704
707.50 0.066619
708.00 0.066638
708.50 0.066687
709.00 0.066753
709.50 0.066904
710.00 0.066923
710.50 0.066995
711.00 0.066948
711.50 0.066963
712.00 0.066914
712.50 0.066966
713.00 0.066997
713.50 0.067073
714.00 0.067251
714.50 0.067248
715.00 0.067402
715.50 0.067385
716.00 0.067571
716.50 0.067482
717.00 0.067516
717.50 0.067504
718.00 0.067687
718.50 0.067680
719.00 0.067858
719.50 0.067858
720.00 0.068021
720.50 0.067883
721.00 0.067958
721.50 0.067986
722.00 0.068076
722.50 0.068226
723.00 0.068298
723.50 0.068366
724.00 0.068414
724.50 0.068552
725.00 0.068760
725.50 0.068798
726.00 0.068926
726.50 0.069131
727.00 0.069401
727.50 0.069620
728.00 0.069699
728.50 0.069796
729.00 0.069782
729.50 0.069928
730.00 0.070198
730.50 0.070515
731.00 0.070728
731.50 0.070860
732.00 0.071176
732.50 0.071525
733.00 0.071664
733.50 0.071831
734.00 0.071917
734.50 0.072191
735.00 0.072236
735.50 0.072463
736.00 0.072612
736.50 0.072866
737.00 0.072958
737.50 0.073155
738.00 0.073228
738.50 0.073260
739.00 0.073248
739.50 0.073349
740.00 0.073487
740.50 0.073464
741.00 0.073408
741.50 0.073327
742.00 0.073445
742.50 0.073464
743.00 0.073591
743.50 0.073485
744.00 0.073456
744.50 0.073608
745.00 0.073721
745.50 0.073788
746.00 0.073609
746.50 0.073595
747.00 0.073696
747.50 0.073756
748.00 0.073813
748.50 0.073890
749.00 0.073849
749.50 0.073781
750.00 0.073867
750.50 0.073879
751.00 0.074007
751.50 0.073848
752.00 0.073920
752.50 0.073910
753.00 0.073803
753.50 0.073907
754.00 0.073969
754.50 0.074049
755.00 0.073961
755.50 0.073885
756.00 0.073873
756.50 0.073920
757.00 0.074098
757.50 0.074201
758.00 0.074261
758.50 0.074254
759.00 0.074279
759.50 0.074302
760.00 0.074094
760.50 0.074165
761.00 0.074034
761.50 0.074219
762.00 0.074190
762.50 0.074350
763.00 0.074192
763.50 0.074025
764.00 0.074040
764.50 0.074250
765.00 0.074288
765.50 0.074204
766.00 0.074133
766.50 0.074114
767.00 0.074046
767.50 0.073863
768.00 0.073766
768.50 0.073548
769.00 0.073424
769.50 0.073223
770.00 0.073012
770.50 0.072832
771.00 0.072637
771.50 0.072659
772.00 0.072535
772.50 0.072534
773.00 0.072435
773.50 0.072508
774.00 0.072517
774.50 0.072601
775.00 0.072491
775.50 0.072466
776.00 0.072342
776.50 0.072442
777.00 0.072579
777.50 0.072677
778.00 0.072818
778.50 0.072948
779.00 0.073184
779.50 0.073320
780.00 0.073526
780.50 0.073563
781.00 0.073733
781.50 0.073812
782.00 0.073808
782.50 0.073843
783.00 0.073723
783.50 0.073697
784.00 0.073466
784.50 0.073486
785.00 0.073601
785.50 0.073722
786.00 0.073494
786.50 0.073286
787.00 0.073071
787.50 0.072916
788.00 0.072849
788.50 0.072660
789.00 0.072677
789.50 0.072592
790.00 0.072568
790.50 0.072522
791.00 0.072301
791.50 0.072286
792.00 0.072123
792.50 0.072116
793.00 0.071839
793.50 0.071815
794.00 0.071652
794.50 0.071740
795.00 0.071645
795.50 0.071655
796.00 0.071524
796.50 0.071414
797.00 0.071254
797.50 0.071147
798.00 0.071278
798.50 0.071185
799.00 0.071211
799.50 0.070938
800.00 0.070960