File: data/14_05/G.txt
'File_250514_175048 - Storage 175048'
'Wavelength nm.' 'Abs.'
350.00 0.269753
350.50 0.269626
351.00 0.269457
351.50 0.269331
352.00 0.269248
352.50 0.269130
353.00 0.268755
353.50 0.268464
354.00 0.268248
354.50 0.268128
355.00 0.267955
355.50 0.267746
356.00 0.267573
356.50 0.267290
357.00 0.266986
357.50 0.266576
358.00 0.266223
358.50 0.265929
359.00 0.265888
359.50 0.265720
360.00 0.265552
360.50 0.265182
361.00 0.264906
361.50 0.264631
362.00 0.264428
362.50 0.264282
363.00 0.264053
363.50 0.263808
364.00 0.263560
364.50 0.263352
365.00 0.263140
365.50 0.262966
366.00 0.262705
366.50 0.262450
367.00 0.262235
367.50 0.262025
368.00 0.261812
368.50 0.261572
369.00 0.261378
369.50 0.261143
370.00 0.260984
370.50 0.260751
371.00 0.260637
371.50 0.260402
372.00 0.260229
372.50 0.260091
373.00 0.259666
373.50 0.259362
374.00 0.258946
374.50 0.258837
375.00 0.258635
375.50 0.258520
376.00 0.258463
376.50 0.258293
377.00 0.258085
377.50 0.257810
378.00 0.257693
378.50 0.257561
379.00 0.257463
379.50 0.257211
380.00 0.257010
380.50 0.256760
381.00 0.256594
381.50 0.256426
382.00 0.256150
382.50 0.256070
383.00 0.255970
383.50 0.255923
384.00 0.255733
384.50 0.255509
385.00 0.255404
385.50 0.255341
386.00 0.255239
386.50 0.255094
387.00 0.254925
387.50 0.254778
388.00 0.254721
388.50 0.254631
389.00 0.254588
389.50 0.254417
390.00 0.254349
390.50 0.254274
391.00 0.254212
391.50 0.254085
392.00 0.254014
392.50 0.253982
393.00 0.253972
393.50 0.253928
394.00 0.253916
394.50 0.253844
395.00 0.253772
395.50 0.253679
396.00 0.253710
396.50 0.253744
397.00 0.253742
397.50 0.253733
398.00 0.253751
398.50 0.253835
399.00 0.253793
399.50 0.253812
400.00 0.253865
400.50 0.254036
401.00 0.254144
401.50 0.254229
402.00 0.254237
402.50 0.254247
403.00 0.254343
403.50 0.254280
404.00 0.254266
404.50 0.254185
405.00 0.254302
405.50 0.254374
406.00 0.254482
406.50 0.254575
407.00 0.254707
407.50 0.254904
408.00 0.255109
408.50 0.255276
409.00 0.255411
409.50 0.255533
410.00 0.255713
410.50 0.255827
411.00 0.255987
411.50 0.256148
412.00 0.256327
412.50 0.256508
413.00 0.256736
413.50 0.256921
414.00 0.257120
414.50 0.257197
415.00 0.257408
415.50 0.257530
416.00 0.257608
416.50 0.257668
417.00 0.257882
417.50 0.258163
418.00 0.258415
418.50 0.258601
419.00 0.258817
419.50 0.258931
420.00 0.259030
420.50 0.259117
421.00 0.259181
421.50 0.259272
422.00 0.259379
422.50 0.259592
423.00 0.259760
423.50 0.259942
424.00 0.260089
424.50 0.260300
425.00 0.260469
425.50 0.260686
426.00 0.260858
426.50 0.261054
427.00 0.261256
427.50 0.261459
428.00 0.261611
428.50 0.261699
429.00 0.261803
429.50 0.261958
430.00 0.262156
430.50 0.262342
431.00 0.262530
431.50 0.262741
432.00 0.262871
432.50 0.262916
433.00 0.263067
433.50 0.263188
434.00 0.263431
434.50 0.263536
435.00 0.263691
435.50 0.263822
436.00 0.264040
436.50 0.264267
437.00 0.264447
437.50 0.264491
438.00 0.264580
438.50 0.264774
439.00 0.264948
439.50 0.265120
440.00 0.265225
440.50 0.265386
441.00 0.265535
441.50 0.265598
442.00 0.265757
442.50 0.265874
443.00 0.265990
443.50 0.266031
444.00 0.266140
444.50 0.266287
445.00 0.266367
445.50 0.266485
446.00 0.266542
446.50 0.266726
447.00 0.266752
447.50 0.266944
448.00 0.266975
448.50 0.267114
449.00 0.267157
449.50 0.267304
450.00 0.267375
450.50 0.267483
451.00 0.267565
451.50 0.267674
452.00 0.267731
452.50 0.267778
453.00 0.267862
453.50 0.267920
454.00 0.267921
454.50 0.267953
455.00 0.268028
455.50 0.268146
456.00 0.268229
456.50 0.268263
457.00 0.268284
457.50 0.268324
458.00 0.268415
458.50 0.268539
459.00 0.268494
459.50 0.268447
460.00 0.268343
460.50 0.268481
461.00 0.268514
461.50 0.268688
462.00 0.268594
462.50 0.268611
463.00 0.268516
463.50 0.268607
464.00 0.268705
464.50 0.268761
465.00 0.268750
465.50 0.268780
466.00 0.268805
466.50 0.268765
467.00 0.268627
467.50 0.268556
468.00 0.268546
468.50 0.268575
469.00 0.268532
469.50 0.268502
470.00 0.268423
470.50 0.268349
471.00 0.268254
471.50 0.268186
472.00 0.268091
472.50 0.268053
473.00 0.267903
473.50 0.267873
474.00 0.267735
474.50 0.267630
475.00 0.267442
475.50 0.267376
476.00 0.267309
476.50 0.267219
477.00 0.267045
477.50 0.266848
478.00 0.266735
478.50 0.266591
479.00 0.266474
479.50 0.266278
480.00 0.266152
480.50 0.266035
481.00 0.265863
481.50 0.265709
482.00 0.265541
482.50 0.265400
483.00 0.265194
483.50 0.265025
484.00 0.264843
484.50 0.264617
485.00 0.264366
485.50 0.264146
486.00 0.263954
486.50 0.263715
487.00 0.263395
487.50 0.263138
488.00 0.262971
488.50 0.262742
489.00 0.262476
489.50 0.262148
490.00 0.261949
490.50 0.261674
491.00 0.261324
491.50 0.261015
492.00 0.260762
492.50 0.260567
493.00 0.260267
493.50 0.259964
494.00 0.259645
494.50 0.259357
495.00 0.259018
495.50 0.258724
496.00 0.258415
496.50 0.258115
497.00 0.257860
497.50 0.257580
498.00 0.257272
498.50 0.256877
499.00 0.256560
499.50 0.256220
500.00 0.255854
500.50 0.255505
501.00 0.255097
501.50 0.254781
502.00 0.254372
502.50 0.254127
503.00 0.253779
503.50 0.253362
504.00 0.253000
504.50 0.252656
505.00 0.252389
505.50 0.252006
506.00 0.251581
506.50 0.251183
507.00 0.250823
507.50 0.250472
508.00 0.250119
508.50 0.249675
509.00 0.249360
509.50 0.248970
510.00 0.248667
510.50 0.248194
511.00 0.247770
511.50 0.247300
512.00 0.246827
512.50 0.246429
513.00 0.245957
513.50 0.245580
514.00 0.245095
514.50 0.244765
515.00 0.244411
515.50 0.244027
516.00 0.243529
516.50 0.243048
517.00 0.242624
517.50 0.242243
518.00 0.241793
518.50 0.241261
519.00 0.240775
519.50 0.240353
520.00 0.239938
520.50 0.239442
521.00 0.238940
521.50 0.238479
522.00 0.238039
522.50 0.237563
523.00 0.237067
523.50 0.236594
524.00 0.236162
524.50 0.235810
525.00 0.235286
525.50 0.234772
526.00 0.234224
526.50 0.233829
527.00 0.233404
527.50 0.232975
528.00 0.232518
528.50 0.232042
529.00 0.231496
529.50 0.230991
530.00 0.230324
530.50 0.229743
531.00 0.229136
531.50 0.228600
532.00 0.228016
532.50 0.227469
533.00 0.226937
533.50 0.226378
534.00 0.225818
534.50 0.225276
535.00 0.224825
535.50 0.224342
536.00 0.223863
536.50 0.223270
537.00 0.222588
537.50 0.221971
538.00 0.221396
538.50 0.220829
539.00 0.220263
539.50 0.219773
540.00 0.219276
540.50 0.218737
541.00 0.218109
541.50 0.217570
542.00 0.216992
542.50 0.216451
543.00 0.215831
543.50 0.215432
544.00 0.214912
544.50 0.214465
545.00 0.213896
545.50 0.213417
546.00 0.212872
546.50 0.212327
547.00 0.211769
547.50 0.211312
548.00 0.210731
548.50 0.210179
549.00 0.209554
549.50 0.209035
550.00 0.208538
550.50 0.208036
551.00 0.207552
551.50 0.207005
552.00 0.206461
552.50 0.205892
553.00 0.205417
553.50 0.204933
554.00 0.204465
554.50 0.203924
555.00 0.203358
555.50 0.202726
556.00 0.202196
556.50 0.201681
557.00 0.201176
557.50 0.200634
558.00 0.200115
558.50 0.199625
559.00 0.199053
559.50 0.198499
560.00 0.197961
560.50 0.197353
561.00 0.196789
561.50 0.196286
562.00 0.195829
562.50 0.195366
563.00 0.194768
563.50 0.194248
564.00 0.193670
564.50 0.193093
565.00 0.192544
565.50 0.192046
566.00 0.191499
566.50 0.190944
567.00 0.190398
567.50 0.189968
568.00 0.189463
568.50 0.188949
569.00 0.188489
569.50 0.188011
570.00 0.187506
570.50 0.186961
571.00 0.186449
571.50 0.185922
572.00 0.185406
572.50 0.184921
573.00 0.184449
573.50 0.184019
574.00 0.183564
574.50 0.183074
575.00 0.182580
575.50 0.182035
576.00 0.181517
576.50 0.180988
577.00 0.180471
577.50 0.179958
578.00 0.179459
578.50 0.179038
579.00 0.178615
579.50 0.178115
580.00 0.177636
580.50 0.177171
581.00 0.176634
581.50 0.176144
582.00 0.175603
582.50 0.175224
583.00 0.174659
583.50 0.174150
584.00 0.173601
584.50 0.173137
585.00 0.172636
585.50 0.172150
586.00 0.171637
586.50 0.171167
587.00 0.170700
587.50 0.170186
588.00 0.169685
588.50 0.169141
589.00 0.168720
589.50 0.168318
590.00 0.167852
590.50 0.167332
591.00 0.166811
591.50 0.166408
592.00 0.166050
592.50 0.165670
593.00 0.165231
593.50 0.164680
594.00 0.164176
594.50 0.163703
595.00 0.163355
595.50 0.162928
596.00 0.162450
596.50 0.161955
597.00 0.161505
597.50 0.161076
598.00 0.160654
598.50 0.160137
599.00 0.159592
599.50 0.159106
600.00 0.158815
600.50 0.158433
601.00 0.158032
601.50 0.157484
602.00 0.157109
602.50 0.156666
603.00 0.156285
603.50 0.155760
604.00 0.155255
604.50 0.154668
605.00 0.154250
605.50 0.153861
606.00 0.153462
606.50 0.153001
607.00 0.152526
607.50 0.152060
608.00 0.151625
608.50 0.151142
609.00 0.150685
609.50 0.150206
610.00 0.149714
610.50 0.149263
611.00 0.148786
611.50 0.148396
612.00 0.147963
612.50 0.147560
613.00 0.147091
613.50 0.146600
614.00 0.146127
614.50 0.145705
615.00 0.145362
615.50 0.144883
616.00 0.144363
616.50 0.143897
617.00 0.143460
617.50 0.143097
618.00 0.142692
618.50 0.142347
619.00 0.141890
619.50 0.141406
620.00 0.140970
620.50 0.140610
621.00 0.140139
621.50 0.139684
622.00 0.139362
622.50 0.139074
623.00 0.138672
623.50 0.138188
624.00 0.137657
624.50 0.137367
625.00 0.136978
625.50 0.136775
626.00 0.136405
626.50 0.136042
627.00 0.135674
627.50 0.135248
628.00 0.134877
628.50 0.134499
629.00 0.134077
629.50 0.133758
630.00 0.133352
630.50 0.133055
631.00 0.132585
631.50 0.132166
632.00 0.131683
632.50 0.131356
633.00 0.130986
633.50 0.130621
634.00 0.130258
634.50 0.129846
635.00 0.129568
635.50 0.129186
636.00 0.128875
636.50 0.128431
637.00 0.128087
637.50 0.127663
638.00 0.127368
638.50 0.126874
639.00 0.126566
639.50 0.126172
640.00 0.126026
640.50 0.125719
641.00 0.125402
641.50 0.124897
642.00 0.124515
642.50 0.124143
643.00 0.123829
643.50 0.123461
644.00 0.123180
644.50 0.122871
645.00 0.122540
645.50 0.122258
646.00 0.122007
646.50 0.121761
647.00 0.121380
647.50 0.121088
648.00 0.120817
648.50 0.120527
649.00 0.120163
649.50 0.119787
650.00 0.119551
650.50 0.119253
651.00 0.119021
651.50 0.118657
652.00 0.118340
652.50 0.117973
653.00 0.117727
653.50 0.117422
654.00 0.117155
654.50 0.116843
655.00 0.116611
655.50 0.116313
656.00 0.116064
656.50 0.115764
657.00 0.115411
657.50 0.115013
658.00 0.114618
658.50 0.114380
659.00 0.114093
659.50 0.113798
660.00 0.113516
660.50 0.113264
661.00 0.113076
661.50 0.112781
662.00 0.112545
662.50 0.112337
663.00 0.112193
663.50 0.111979
664.00 0.111716
664.50 0.111453
665.00 0.111245
665.50 0.111028
666.00 0.110728
666.50 0.110365
667.00 0.110098
667.50 0.109826
668.00 0.109616
668.50 0.109354
669.00 0.109203
669.50 0.109098
670.00 0.108896
670.50 0.108616
671.00 0.108275
671.50 0.107972
672.00 0.107785
672.50 0.107519
673.00 0.107263
673.50 0.106990
674.00 0.106766
674.50 0.106640
675.00 0.106426
675.50 0.106211
676.00 0.105961
676.50 0.105847
677.00 0.105736
677.50 0.105491
678.00 0.105123
678.50 0.104722
679.00 0.104435
679.50 0.104246
680.00 0.104062
680.50 0.103859
681.00 0.103576
681.50 0.103367
682.00 0.103129
682.50 0.102970
683.00 0.102820
683.50 0.102720
684.00 0.102574
684.50 0.102315
685.00 0.102074
685.50 0.101814
686.00 0.101544
686.50 0.101221
687.00 0.100999
687.50 0.100861
688.00 0.100827
688.50 0.100607
689.00 0.100327
689.50 0.100012
690.00 0.099800
690.50 0.099646
691.00 0.099516
691.50 0.099360
692.00 0.099160
692.50 0.098966
693.00 0.098840
693.50 0.098682
694.00 0.098446
694.50 0.098233
695.00 0.098105
695.50 0.097957
696.00 0.097770
696.50 0.097589
697.00 0.097435
697.50 0.097226
698.00 0.097001
698.50 0.096859
699.00 0.096825
699.50 0.096768
700.00 0.096650
700.50 0.096404
701.00 0.096203
701.50 0.096088
702.00 0.095988
702.50 0.095840
703.00 0.095652
703.50 0.095541
704.00 0.095377
704.50 0.095411
705.00 0.095161
705.50 0.095170
706.00 0.094882
706.50 0.094815
707.00 0.094620
707.50 0.094495
708.00 0.094316
708.50 0.094225
709.00 0.094094
709.50 0.094075
710.00 0.093910
710.50 0.093824
711.00 0.093648
711.50 0.093631
712.00 0.093589
712.50 0.093604
713.00 0.093392
713.50 0.093194
714.00 0.093021
714.50 0.093052
715.00 0.093061
715.50 0.093108
716.00 0.092974
716.50 0.092839
717.00 0.092785
717.50 0.092780
718.00 0.092816
718.50 0.092659
719.00 0.092593
719.50 0.092534
720.00 0.092515
720.50 0.092351
721.00 0.092238
721.50 0.092204
722.00 0.092260
722.50 0.092306
723.00 0.092327
723.50 0.092330
724.00 0.092281
724.50 0.092279
725.00 0.092147
725.50 0.092108
726.00 0.092070
726.50 0.092172
727.00 0.092220
727.50 0.092220
728.00 0.092198
728.50 0.092183
729.00 0.092121
729.50 0.092264
730.00 0.092432
730.50 0.092575
731.00 0.092672
731.50 0.092787
732.00 0.092953
732.50 0.093104
733.00 0.093081
733.50 0.093243
734.00 0.093295
734.50 0.093463
735.00 0.093428
735.50 0.093448
736.00 0.093459
736.50 0.093632
737.00 0.093582
737.50 0.093659
738.00 0.093551
738.50 0.093620
739.00 0.093475
739.50 0.093367
740.00 0.093306
740.50 0.093314
741.00 0.093349
741.50 0.093237
742.00 0.093170
742.50 0.093022
743.00 0.092925
743.50 0.092648
744.00 0.092420
744.50 0.092287
745.00 0.092261
745.50 0.092202
746.00 0.092030
746.50 0.091933
747.00 0.091840
747.50 0.091708
748.00 0.091552
748.50 0.091601
749.00 0.091556
749.50 0.091417
750.00 0.091322
750.50 0.091290
751.00 0.091255
751.50 0.090897
752.00 0.090681
752.50 0.090644
753.00 0.090466
753.50 0.090356
754.00 0.090212
754.50 0.090222
755.00 0.090112
755.50 0.089846
756.00 0.089749
756.50 0.089743
757.00 0.089749
757.50 0.089601
758.00 0.089366
758.50 0.089244
759.00 0.089141
759.50 0.089136
760.00 0.089000
760.50 0.089033
761.00 0.088973
761.50 0.088847
762.00 0.088559
762.50 0.088451
763.00 0.088345
763.50 0.088167
764.00 0.088048
764.50 0.087999
765.00 0.088029
765.50 0.087783
766.00 0.087737
766.50 0.087595
767.00 0.087555
767.50 0.087388
768.00 0.087232
768.50 0.087109
769.00 0.086910
769.50 0.086770
770.00 0.086543
770.50 0.086451
771.00 0.086229
771.50 0.086202
772.00 0.086060
772.50 0.086015
773.00 0.085881
773.50 0.085734
774.00 0.085678
774.50 0.085689
775.00 0.085573
775.50 0.085464
776.00 0.085107
776.50 0.084980
777.00 0.084825
777.50 0.084791
778.00 0.084726
778.50 0.084735
779.00 0.084670
779.50 0.084646
780.00 0.084454
780.50 0.084354
781.00 0.084147
781.50 0.084191
782.00 0.084011
782.50 0.083976
783.00 0.083775
783.50 0.083617
784.00 0.083402
784.50 0.083329
785.00 0.083371
785.50 0.083300
786.00 0.083111
786.50 0.082875
787.00 0.082851
787.50 0.082594
788.00 0.082442
788.50 0.082200
789.00 0.082113
789.50 0.082008
790.00 0.081847
790.50 0.081789
791.00 0.081603
791.50 0.081448
792.00 0.081182
792.50 0.081190
793.00 0.080895
793.50 0.080874
794.00 0.080725
794.50 0.080794
795.00 0.080789
795.50 0.080516
796.00 0.080319
796.50 0.080081
797.00 0.079834
797.50 0.079736
798.00 0.079626
798.50 0.079678
799.00 0.079594
799.50 0.079265
800.00 0.079037