File: data/14_05/Y2.txt
'File_250514_184140 - Storage 184140'
'Wavelength nm.' 'Abs.'
350.00 0.585586
350.50 0.585449
351.00 0.585237
351.50 0.585115
352.00 0.584880
352.50 0.584748
353.00 0.584461
353.50 0.584160
354.00 0.583745
354.50 0.583541
355.00 0.583263
355.50 0.583046
356.00 0.582592
356.50 0.582378
357.00 0.582160
357.50 0.581902
358.00 0.581527
358.50 0.581174
359.00 0.580962
359.50 0.580671
360.00 0.580696
360.50 0.580535
361.00 0.580651
361.50 0.580326
362.00 0.580158
362.50 0.579732
363.00 0.579485
363.50 0.579109
364.00 0.578886
364.50 0.578445
365.00 0.578183
365.50 0.578045
366.00 0.577827
366.50 0.577559
367.00 0.577161
367.50 0.576969
368.00 0.576729
368.50 0.576510
369.00 0.576260
369.50 0.576000
370.00 0.575811
370.50 0.575556
371.00 0.575358
371.50 0.575107
372.00 0.574827
372.50 0.574603
373.00 0.574111
373.50 0.573747
374.00 0.573283
374.50 0.573019
375.00 0.572780
375.50 0.572636
376.00 0.572584
376.50 0.572455
377.00 0.572292
377.50 0.572120
378.00 0.571899
378.50 0.571680
379.00 0.571423
379.50 0.571223
380.00 0.571069
380.50 0.570916
381.00 0.570718
381.50 0.570517
382.00 0.570229
382.50 0.570125
383.00 0.570062
383.50 0.569947
384.00 0.569727
384.50 0.569429
385.00 0.569275
385.50 0.569095
386.00 0.568996
386.50 0.568763
387.00 0.568594
387.50 0.568336
388.00 0.568189
388.50 0.568084
389.00 0.567919
389.50 0.567791
390.00 0.567612
390.50 0.567515
391.00 0.567321
391.50 0.567191
392.00 0.567038
392.50 0.566935
393.00 0.566711
393.50 0.566456
394.00 0.566275
394.50 0.566042
395.00 0.565999
395.50 0.565902
396.00 0.565866
396.50 0.565672
397.00 0.565436
397.50 0.565335
398.00 0.565197
398.50 0.565077
399.00 0.564854
399.50 0.564788
400.00 0.564764
400.50 0.564771
401.00 0.564658
401.50 0.564555
402.00 0.564437
402.50 0.564375
403.00 0.564307
403.50 0.563866
404.00 0.563444
404.50 0.563132
405.00 0.563171
405.50 0.563176
406.00 0.563074
406.50 0.562977
407.00 0.562843
407.50 0.562816
408.00 0.562818
408.50 0.562860
409.00 0.562927
409.50 0.562961
410.00 0.562970
410.50 0.562925
411.00 0.562871
411.50 0.563005
412.00 0.563069
412.50 0.563128
413.00 0.563183
413.50 0.563229
414.00 0.563294
414.50 0.563211
415.00 0.563214
415.50 0.563205
416.00 0.563214
416.50 0.563216
417.00 0.563315
417.50 0.563315
418.00 0.563386
418.50 0.563445
419.00 0.563569
419.50 0.563558
420.00 0.563160
420.50 0.562815
421.00 0.562448
421.50 0.562428
422.00 0.562389
422.50 0.562306
423.00 0.562363
423.50 0.562424
424.00 0.562606
424.50 0.562667
425.00 0.562737
425.50 0.562852
426.00 0.562979
426.50 0.563115
427.00 0.563180
427.50 0.563156
428.00 0.563228
428.50 0.563319
429.00 0.563463
429.50 0.563579
430.00 0.563646
430.50 0.563788
431.00 0.563948
431.50 0.564202
432.00 0.564308
432.50 0.564356
433.00 0.564427
433.50 0.564577
434.00 0.564824
434.50 0.564959
435.00 0.565126
435.50 0.565234
436.00 0.565382
436.50 0.565634
437.00 0.565823
437.50 0.565920
438.00 0.566002
438.50 0.566135
439.00 0.566377
439.50 0.566588
440.00 0.566769
440.50 0.566978
441.00 0.567144
441.50 0.567230
442.00 0.567360
442.50 0.567593
443.00 0.567821
443.50 0.568070
444.00 0.568187
444.50 0.568442
445.00 0.568532
445.50 0.568838
446.00 0.568999
446.50 0.569289
447.00 0.569387
447.50 0.569641
448.00 0.569790
448.50 0.569999
449.00 0.570186
449.50 0.570420
450.00 0.570516
450.50 0.570623
451.00 0.570785
451.50 0.571004
452.00 0.571222
452.50 0.571358
453.00 0.571640
453.50 0.571812
454.00 0.571969
454.50 0.572150
455.00 0.572383
455.50 0.572632
456.00 0.572822
456.50 0.573032
457.00 0.573285
457.50 0.573519
458.00 0.573814
458.50 0.574072
459.00 0.574234
459.50 0.574295
460.00 0.574391
460.50 0.574661
461.00 0.574948
461.50 0.575329
462.00 0.575459
462.50 0.575580
463.00 0.575643
463.50 0.575840
464.00 0.576169
464.50 0.576437
465.00 0.576771
465.50 0.577022
466.00 0.577286
466.50 0.577387
467.00 0.577524
467.50 0.577622
468.00 0.577831
468.50 0.578023
469.00 0.578197
469.50 0.578335
470.00 0.578536
470.50 0.578749
471.00 0.578974
471.50 0.579094
472.00 0.579221
472.50 0.579418
473.00 0.579542
473.50 0.579671
474.00 0.579725
474.50 0.579845
475.00 0.579973
475.50 0.580189
476.00 0.580285
476.50 0.580344
477.00 0.580392
477.50 0.580490
478.00 0.580689
478.50 0.580824
479.00 0.580939
479.50 0.581069
480.00 0.581188
480.50 0.581455
481.00 0.581569
481.50 0.581647
482.00 0.581663
482.50 0.581801
483.00 0.581891
483.50 0.581989
484.00 0.582032
484.50 0.582097
485.00 0.582196
485.50 0.582183
486.00 0.582251
486.50 0.582221
487.00 0.582213
487.50 0.582271
488.00 0.582361
488.50 0.582282
489.00 0.582247
489.50 0.582101
490.00 0.582233
490.50 0.582210
491.00 0.582247
491.50 0.582214
492.00 0.582248
492.50 0.582340
493.00 0.582385
493.50 0.582341
494.00 0.582197
494.50 0.582101
495.00 0.582056
495.50 0.582028
496.00 0.582005
496.50 0.581936
497.00 0.581965
497.50 0.581988
498.00 0.581906
498.50 0.581780
499.00 0.581654
499.50 0.581590
500.00 0.581545
500.50 0.581499
501.00 0.581402
501.50 0.581320
502.00 0.581195
502.50 0.581208
503.00 0.581054
503.50 0.580812
504.00 0.580651
504.50 0.580576
505.00 0.580530
505.50 0.580410
506.00 0.580271
506.50 0.580216
507.00 0.579997
507.50 0.579841
508.00 0.579745
508.50 0.579645
509.00 0.579543
509.50 0.579336
510.00 0.579287
510.50 0.579046
511.00 0.578900
511.50 0.578683
512.00 0.578518
512.50 0.578318
513.00 0.578030
513.50 0.577836
514.00 0.577599
514.50 0.577450
515.00 0.577327
515.50 0.577103
516.00 0.576779
516.50 0.576448
517.00 0.576237
517.50 0.576086
518.00 0.575846
518.50 0.575553
519.00 0.575319
519.50 0.575170
520.00 0.574893
520.50 0.574596
521.00 0.574201
521.50 0.573915
522.00 0.573637
522.50 0.573362
523.00 0.573074
523.50 0.572814
524.00 0.572533
524.50 0.572329
525.00 0.572047
525.50 0.571674
526.00 0.571267
526.50 0.570896
527.00 0.570593
527.50 0.570298
528.00 0.569950
528.50 0.569737
529.00 0.569506
529.50 0.569217
530.00 0.567931
530.50 0.566674
531.00 0.565238
531.50 0.564644
532.00 0.563925
532.50 0.563340
533.00 0.562708
533.50 0.562050
534.00 0.561354
534.50 0.560696
535.00 0.560060
535.50 0.559447
536.00 0.558846
536.50 0.558134
537.00 0.557450
537.50 0.556749
538.00 0.556132
538.50 0.555409
539.00 0.554818
539.50 0.554218
540.00 0.553647
540.50 0.552950
541.00 0.552223
541.50 0.551660
542.00 0.551025
542.50 0.550437
543.00 0.549727
543.50 0.549157
544.00 0.548544
544.50 0.548003
545.00 0.547414
545.50 0.546803
546.00 0.546191
546.50 0.545497
547.00 0.544905
547.50 0.544259
548.00 0.543684
548.50 0.543069
549.00 0.542343
549.50 0.541623
550.00 0.540913
550.50 0.540280
551.00 0.539676
551.50 0.539048
552.00 0.538506
552.50 0.537840
553.00 0.537237
553.50 0.536537
554.00 0.535969
554.50 0.535306
555.00 0.534656
555.50 0.533877
556.00 0.533126
556.50 0.532354
557.00 0.531685
557.50 0.531020
558.00 0.530401
558.50 0.529721
559.00 0.529069
559.50 0.528237
560.00 0.527483
560.50 0.526725
561.00 0.526126
561.50 0.525427
562.00 0.524656
562.50 0.523931
563.00 0.523127
563.50 0.522435
564.00 0.521608
564.50 0.520871
565.00 0.520102
565.50 0.519375
566.00 0.518578
566.50 0.517738
567.00 0.516893
567.50 0.516156
568.00 0.515434
568.50 0.514744
569.00 0.514064
569.50 0.513290
570.00 0.512515
570.50 0.511700
571.00 0.510946
571.50 0.510170
572.00 0.509484
572.50 0.508754
573.00 0.508128
573.50 0.507441
574.00 0.506778
574.50 0.506013
575.00 0.505208
575.50 0.504391
576.00 0.503615
576.50 0.502901
577.00 0.502142
577.50 0.501348
578.00 0.500523
578.50 0.499775
579.00 0.499032
579.50 0.498239
580.00 0.497507
580.50 0.496752
581.00 0.496026
581.50 0.495206
582.00 0.494430
582.50 0.493645
583.00 0.492910
583.50 0.491989
584.00 0.491090
584.50 0.490142
585.00 0.489269
585.50 0.488363
586.00 0.487439
586.50 0.486534
587.00 0.485627
587.50 0.484628
588.00 0.483728
588.50 0.482779
589.00 0.481990
589.50 0.481166
590.00 0.480286
590.50 0.479314
591.00 0.478341
591.50 0.477692
592.00 0.477069
592.50 0.476466
593.00 0.475540
593.50 0.474539
594.00 0.473493
594.50 0.472593
595.00 0.471781
595.50 0.470899
596.00 0.469968
596.50 0.469010
597.00 0.468178
597.50 0.467254
598.00 0.466388
598.50 0.465461
599.00 0.464599
599.50 0.463743
600.00 0.462878
600.50 0.461983
601.00 0.461034
601.50 0.460096
602.00 0.459254
602.50 0.458313
603.00 0.457404
603.50 0.456325
604.00 0.455371
604.50 0.454348
605.00 0.453453
605.50 0.452552
606.00 0.451682
606.50 0.450652
607.00 0.449652
607.50 0.448704
608.00 0.447786
608.50 0.446794
609.00 0.445735
609.50 0.444767
610.00 0.443769
610.50 0.442783
611.00 0.441839
611.50 0.440866
612.00 0.439893
612.50 0.438861
613.00 0.437909
613.50 0.436800
614.00 0.435778
614.50 0.434748
615.00 0.433893
615.50 0.432851
616.00 0.431869
616.50 0.430881
617.00 0.429982
617.50 0.429001
618.00 0.428018
618.50 0.426990
619.00 0.426027
619.50 0.425010
620.00 0.424045
620.50 0.423000
621.00 0.422035
621.50 0.421087
622.00 0.420286
622.50 0.419387
623.00 0.418352
623.50 0.417242
624.00 0.416222
624.50 0.415441
625.00 0.414706
625.50 0.413931
626.00 0.413049
626.50 0.412010
627.00 0.411054
627.50 0.410034
628.00 0.409116
628.50 0.408142
629.00 0.407177
629.50 0.406171
630.00 0.405090
630.50 0.404085
631.00 0.403083
631.50 0.402081
632.00 0.401031
632.50 0.400018
633.00 0.399006
633.50 0.397938
634.00 0.396900
634.50 0.395850
635.00 0.394925
635.50 0.393945
636.00 0.392947
636.50 0.391878
637.00 0.390745
637.50 0.389714
638.00 0.388825
638.50 0.387856
639.00 0.386921
639.50 0.385852
640.00 0.384934
640.50 0.383924
641.00 0.382956
641.50 0.381916
642.00 0.380910
642.50 0.379843
643.00 0.378891
643.50 0.377877
644.00 0.376974
644.50 0.376018
645.00 0.375078
645.50 0.374082
646.00 0.373164
646.50 0.372230
647.00 0.371285
647.50 0.370239
648.00 0.369314
648.50 0.368319
649.00 0.367438
649.50 0.366410
650.00 0.365389
650.50 0.364333
651.00 0.363389
651.50 0.362464
652.00 0.361478
652.50 0.360522
653.00 0.359616
653.50 0.358739
654.00 0.357782
654.50 0.356807
655.00 0.355802
655.50 0.354848
656.00 0.353849
656.50 0.352863
657.00 0.351660
657.50 0.350531
658.00 0.349409
658.50 0.348428
659.00 0.347547
659.50 0.346554
660.00 0.345708
660.50 0.344823
661.00 0.344000
661.50 0.343177
662.00 0.342285
662.50 0.341472
663.00 0.340640
663.50 0.339784
664.00 0.338922
664.50 0.337982
665.00 0.337109
665.50 0.336273
666.00 0.335429
666.50 0.334461
667.00 0.333507
667.50 0.332477
668.00 0.331588
668.50 0.330635
669.00 0.329927
669.50 0.329244
670.00 0.328538
670.50 0.327589
671.00 0.326528
671.50 0.325416
672.00 0.324463
672.50 0.323563
673.00 0.322757
673.50 0.321847
674.00 0.321007
674.50 0.320207
675.00 0.319426
675.50 0.318583
676.00 0.317669
676.50 0.316861
677.00 0.315981
677.50 0.315063
678.00 0.314062
678.50 0.313011
679.00 0.312140
679.50 0.311230
680.00 0.310330
680.50 0.309296
681.00 0.308435
681.50 0.307577
682.00 0.306717
682.50 0.305885
683.00 0.305253
683.50 0.304571
684.00 0.303831
684.50 0.302787
685.00 0.301869
685.50 0.300841
686.00 0.300074
686.50 0.299197
687.00 0.298415
687.50 0.297475
688.00 0.296694
688.50 0.295793
689.00 0.294928
689.50 0.294035
690.00 0.293162
690.50 0.292356
691.00 0.291542
691.50 0.290808
692.00 0.290061
692.50 0.289286
693.00 0.288466
693.50 0.287715
694.00 0.287006
694.50 0.286205
695.00 0.285530
695.50 0.284666
696.00 0.283840
696.50 0.282996
697.00 0.282234
697.50 0.281497
698.00 0.280659
698.50 0.279922
699.00 0.279354
699.50 0.278703
700.00 0.278010
700.50 0.277178
701.00 0.276393
701.50 0.275633
702.00 0.274904
702.50 0.274161
703.00 0.273392
703.50 0.272594
704.00 0.271839
704.50 0.271126
705.00 0.270374
705.50 0.269770
706.00 0.269072
706.50 0.268346
707.00 0.267586
707.50 0.266870
708.00 0.266211
708.50 0.265523
709.00 0.264785
709.50 0.264202
710.00 0.263554
710.50 0.263057
711.00 0.262248
711.50 0.261571
712.00 0.260845
712.50 0.260335
713.00 0.259538
713.50 0.258847
714.00 0.258261
714.50 0.257706
715.00 0.257137
715.50 0.256510
716.00 0.255986
716.50 0.255336
717.00 0.254685
717.50 0.254111
718.00 0.253672
718.50 0.253055
719.00 0.252579
719.50 0.252045
720.00 0.251562
720.50 0.250730
721.00 0.249919
721.50 0.249345
722.00 0.248905
722.50 0.248473
723.00 0.247910
723.50 0.247411
724.00 0.246845
724.50 0.246322
725.00 0.245720
725.50 0.245165
726.00 0.244596
726.50 0.244157
727.00 0.243799
727.50 0.243260
728.00 0.242671
728.50 0.242048
729.00 0.241625
729.50 0.241378
730.00 0.241151
730.50 0.240831
731.00 0.240333
731.50 0.239797
732.00 0.239497
732.50 0.239248
733.00 0.238935
733.50 0.238525
734.00 0.238037
734.50 0.237660
735.00 0.237216
735.50 0.236794
736.00 0.236359
736.50 0.235882
737.00 0.235490
737.50 0.235159
738.00 0.234811
738.50 0.234300
739.00 0.233676
739.50 0.233078
740.00 0.232539
740.50 0.232055
741.00 0.231547
741.50 0.230977
742.00 0.230525
742.50 0.230033
743.00 0.229482
743.50 0.228766
744.00 0.228035
744.50 0.227555
745.00 0.227071
745.50 0.226758
746.00 0.226259
746.50 0.225697
747.00 0.225077
747.50 0.224505
748.00 0.223881
748.50 0.223436
749.00 0.222818
749.50 0.222326
750.00 0.221699
750.50 0.221252
751.00 0.220728
751.50 0.220181
752.00 0.219606
752.50 0.219234
753.00 0.218717
753.50 0.218265
754.00 0.217590
754.50 0.216943
755.00 0.216397
755.50 0.215868
756.00 0.215533
756.50 0.215068
757.00 0.214544
757.50 0.214057
758.00 0.213574
758.50 0.213088
759.00 0.212645
759.50 0.212241
760.00 0.211953
760.50 0.211449
761.00 0.210873
761.50 0.210367
762.00 0.209812
762.50 0.209344
763.00 0.208811
763.50 0.208263
764.00 0.207811
764.50 0.207393
765.00 0.207033
765.50 0.206502
766.00 0.205971
766.50 0.205445
767.00 0.204882
767.50 0.204321
768.00 0.203773
768.50 0.203126
769.00 0.202647
769.50 0.202058
770.00 0.201654
770.50 0.201163
771.00 0.200710
771.50 0.200360
772.00 0.199885
772.50 0.199462
773.00 0.198958
773.50 0.198546
774.00 0.198182
774.50 0.197750
775.00 0.197238
775.50 0.196834
776.00 0.196372
776.50 0.196014
777.00 0.195582
777.50 0.195223
778.00 0.194904
778.50 0.194478
779.00 0.194111
779.50 0.193779
780.00 0.193350
780.50 0.192945
781.00 0.192433
781.50 0.192042
782.00 0.191615
782.50 0.191124
783.00 0.190782
783.50 0.190256
784.00 0.189864
784.50 0.189431
785.00 0.189303
785.50 0.188876
786.00 0.188447
786.50 0.187760
787.00 0.187298
787.50 0.186711
788.00 0.186331
788.50 0.185840
789.00 0.185490
789.50 0.184974
790.00 0.184670
790.50 0.184319
791.00 0.183865
791.50 0.183486
792.00 0.182989
792.50 0.182755
793.00 0.182203
793.50 0.181745
794.00 0.181248
794.50 0.180827
795.00 0.180466
795.50 0.179972
796.00 0.179667
796.50 0.179103
797.00 0.178706
797.50 0.178321
798.00 0.178157
798.50 0.177734
799.00 0.177238
799.50 0.176528
800.00 0.176136